Folder: StructuralDiversity/Differential scanning calorimetry/12OCB Squalane

Note: README.md
# StructuralDiversity
Raw data for manuscript "Structural diversity encountered during liquid-liquid crystal phase separation"

File: 12OCB SqA wt fraction 000.txt
Filename	12OCB
Instrument name	DSC2A-00101 (192.168.10.4)
Operator	Yuma
rundate	2/4/2021
Sample name	12OCB
proceduresegments	Jump 100.00 °C; Isothermal 10.0 min; Jump 0.00 °C; Isothermal 5.0 min; Mark End of Cycle ; Ramp 5.00 °C/min to 100.00 °C; Mark End of Cycle ; Ramp 5.00 °C/min to 0.00 °C; Mark End of Cycle ; Ramp 5.00 °C/min to 100.00 °C; Mark End of Cycle ; Ramp 1.00 °C/min to 0.00 °C; Mark End of Cycle ; Ramp 5.00 °C/min to 100.00 °C; Mark End of Cycle ; Ramp 10.00 °C/min to 0.00 °C; Mark End of Cycle ; Ramp 10.00 °C/min to 100.00 °C; Mark End of Cycle ; Jump 0.00 °C; Mark End of Cycle
[step]
Ramp 1.00 °C/min to 0.00 °C
Time	Temperature	Heat Flow (Normalized)
s	°C	W/g
4500.30	98.93	-0.151854
4520.30	99.41	-0.0409416
4540.30	99.10	0.0257093
4560.30	98.77	0.0313026
4580.30	98.44	0.0329352
4600.30	98.11	0.0332738
4620.30	97.78	0.0332100
4640.30	97.44	0.0331115
4660.30	97.11	0.0330225
4680.30	96.78	0.0329575
4700.30	96.44	0.0329418
4720.30	96.11	0.0329033
4740.30	95.78	0.0328418
4760.30	95.44	0.0327998
4780.30	95.11	0.0328332
4800.30	94.78	0.0328119
4820.30	94.44	0.0328339
4840.30	94.11	0.0327960
4860.30	93.78	0.0328148
4880.30	93.44	0.0327474
4900.30	93.11	0.0327026
4920.30	92.78	0.0327142
4940.30	92.44	0.0327353
4960.30	92.11	0.0328256
4980.30	91.78	0.0328870
5000.30	91.45	0.0328251
5020.30	91.11	0.0329431
5040.30	90.78	0.0330552
5060.30	90.45	0.0330626
5080.30	90.11	0.0331391
5100.30	89.78	0.0333001
5120.30	89.45	0.0333774
5140.30	89.11	0.0335289
5160.30	88.78	0.0336901
5180.30	88.57	0.460552
5200.30	88.15	0.226135
5220.30	87.78	0.0436329
5240.30	87.45	0.0369734
5260.30	87.11	0.0345138
5280.30	86.78	0.0338748
5300.30	86.45	0.0334156
5320.30	86.11	0.0331093
5340.30	85.78	0.0328798
5360.30	85.45	0.0327099
5380.30	85.11	0.0325844
5400.30	84.78	0.0324552
5420.30	84.45	0.0322586
5440.30	84.11	0.0321559
5460.30	83.78	0.0319381
5480.30	83.44	0.0319002
5500.30	83.11	0.0317532
5520.30	82.78	0.0316717
5540.30	82.45	0.0315427
5560.30	82.11	0.0313868
5580.30	81.78	0.0312703
5600.30	81.45	0.0312170
5620.30	81.11	0.0310804
5640.30	80.78	0.0309356
5660.30	80.45	0.0308688
5680.30	80.11	0.0308318
5700.30	79.78	0.0307514
5720.30	79.45	0.0306416
5740.30	79.11	0.0305003
5760.30	78.78	0.0304080
5780.30	78.45	0.0303682
5800.30	78.11	0.0302916
5820.30	77.78	0.0302334
5840.30	77.45	0.0300731
5860.30	77.11	0.0299828
5880.30	76.78	0.0299417
5900.30	76.45	0.0298697
5920.30	76.11	0.0297724
5940.30	75.78	0.0296142
5960.30	75.45	0.0295232
5980.30	75.11	0.0294904
6000.30	74.78	0.0295532
6020.30	74.45	0.0294502
6040.30	74.11	0.0293305
6060.30	73.78	0.0292502
6080.30	73.45	0.0291869
6100.30	73.11	0.0291297
6120.30	72.78	0.0290784
6140.30	72.45	0.0290887
6160.30	72.11	0.0290352
6180.30	71.78	0.0289196
6200.30	71.45	0.0287953
6220.30	71.11	0.0287214
6240.30	70.78	0.0287196
6260.30	70.45	0.0285683
6280.30	70.11	0.0284620
6300.30	69.78	0.0284459
6320.30	69.45	0.0283520
6340.30	69.11	0.0283911
6360.30	68.78	0.0282377
6380.30	68.45	0.0282455
6400.30	68.11	0.0282164
6420.30	67.78	0.0281229
6440.30	67.44	0.0280234
6460.30	67.11	0.0279741
6480.30	66.78	0.0279870
6500.30	66.45	0.0279648
6520.30	66.11	0.0278871
6540.30	65.78	0.0278051
6560.30	65.44	0.0276786
6580.30	65.11	0.0276784
6600.30	64.78	0.0276339
6620.30	64.44	0.0276027
6640.30	64.11	0.0275207
6660.30	63.78	0.0274265
6680.30	63.45	0.0273757
6700.30	63.11	0.0273253
6720.30	62.78	0.0272800
6740.30	62.45	0.0271970
6760.30	62.11	0.0271831
6780.30	61.78	0.0271137
6800.30	61.45	0.0270902
6820.30	61.11	0.0270503
6840.30	60.78	0.0269595
6860.30	60.44	0.0269751
6880.30	60.11	0.0268130
6900.30	59.78	0.0267801
6920.30	59.44	0.0267347
6940.30	59.11	0.0267238
6960.30	58.78	0.0266677
6980.30	58.45	0.0265679
7000.30	58.11	0.0265404
7020.30	57.78	0.0265232
7040.30	57.44	0.0265108
7060.30	57.11	0.0264158
7080.30	56.78	0.0262566
7100.30	56.44	0.0262518
7120.30	56.11	0.0261834
7140.30	55.78	0.0261994
7160.30	55.44	0.0261912
7180.30	55.11	0.0261464
7200.30	54.78	0.0260757
7220.30	54.45	0.0260440
7240.30	54.11	0.0259617
7260.30	53.78	0.0259307
7280.30	53.44	0.0258903
7300.30	53.11	0.0258000
7320.30	52.78	0.0257845
7340.30	52.45	0.0257664
7360.30	52.11	0.0257130
7380.30	51.78	0.0256912
7400.30	51.56	0.0292165
7420.30	51.90	2.85739
7440.30	51.06	1.36096
7460.30	50.45	0.0685551
7480.30	50.11	0.0273303
7500.30	49.78	0.0229081
7520.30	49.44	0.0211224
7540.30	49.11	0.0203726
7560.30	48.78	0.0199529
7580.30	48.44	0.0196884
7600.30	48.11	0.0198556
7620.30	47.78	0.0195645
7640.30	47.44	0.0193118
7660.30	47.11	0.0190492
7680.30	46.78	0.0188603
7700.30	46.44	0.0196127
7720.30	46.11	0.0189089
7740.30	45.78	0.0186396
7760.30	45.44	0.0183200
7780.30	45.11	0.0181604
7800.30	44.78	0.0180178
7820.30	44.44	0.0179162
7840.30	44.11	0.0178109
7860.30	43.78	0.0176937
7880.30	43.44	0.0175614
7900.30	43.11	0.0174062
7920.30	42.78	0.0172908
7940.30	42.44	0.0172879
7960.30	42.11	0.0172102
7980.30	41.78	0.0170371
8000.30	41.44	0.0169881
8020.30	41.11	0.0169018
8040.30	40.78	0.0167701
8060.30	40.44	0.0165987
8080.30	40.11	0.0165432
8100.30	39.78	0.0166202
8120.30	39.44	0.0164943
8140.30	39.11	0.0163930
8160.30	38.78	0.0162448
8180.30	38.44	0.0161297
8200.30	38.11	0.0159711
8220.30	37.77	0.0158898
8240.30	37.44	0.0158772
8260.30	37.11	0.0157673
8280.30	36.77	0.0156332
8300.30	36.44	0.0155742
8320.30	36.11	0.0155390
8340.30	35.77	0.0153878
8360.30	35.44	0.0153164
8380.30	35.11	0.0152042
8400.30	34.77	0.0150820
8420.30	34.44	0.0149785
8440.30	34.11	0.0148613
8460.30	33.77	0.0199672
8480.30	33.44	0.0162182
8500.30	33.11	0.0151199
8520.30	32.77	0.0147636
8540.30	32.44	0.0145971
8560.30	32.11	0.0145499
8580.30	31.77	0.0144236
8600.30	31.44	0.0144044
8620.30	31.11	0.0348532
8640.30	30.77	0.0199526
8660.30	30.44	0.0159486
8680.30	30.11	0.0148011
8700.30	29.77	0.0144618
8720.30	29.44	0.0143622
8740.30	29.11	0.0142532
8760.30	28.77	0.0142146
8780.30	28.44	0.0140771
8800.30	28.11	0.0139954
8820.30	27.77	0.0139447
8840.30	27.44	0.0139100
8860.30	27.11	0.0138636
8880.30	26.77	0.0137889
8900.30	26.44	0.0137591
8920.30	26.11	0.0136972
8940.30	25.77	0.0136101
8960.30	25.44	0.0160009
8980.30	25.11	0.0142330
9000.30	24.77	0.0136900
9020.30	24.44	0.0135970
9040.30	24.11	0.0133881
9060.30	23.77	0.0132401
9080.30	23.44	0.0131477
9100.30	23.11	0.0130677
9120.30	22.77	0.0130471
9140.30	22.44	0.0129457
9160.30	22.11	0.0128324
9180.30	21.77	0.0127600
9200.30	21.44	0.0126309
9220.30	21.11	0.0128237
9240.30	20.77	0.0127043
9260.30	20.44	0.0131635
9280.30	20.11	0.0126399
9300.30	19.77	0.0123937
9320.30	19.44	0.0125797
9340.30	19.11	0.0123093
9360.30	18.77	0.0120635
9380.30	18.44	0.0123736
9400.30	18.11	0.0123626
9420.30	17.77	0.0119963
9440.30	17.44	0.0127460
9460.30	17.11	0.0122311
9480.30	16.77	0.0118855
9500.30	16.44	0.0117462
9520.30	16.10	0.0116031
9540.30	15.77	0.0114980
9560.30	15.44	0.0118085
9580.30	15.10	0.0115252
9600.30	14.77	0.0113608
9620.30	14.44	0.0112260
9640.30	14.11	0.0112577
9660.30	13.77	0.0111416
9680.30	13.44	0.0111325
9700.30	13.11	0.0110833
9720.30	12.77	0.0111239
9740.30	12.44	0.0109505
9760.30	12.11	0.0108352
9780.30	11.77	0.0107734
9800.30	11.44	0.0107153
9820.30	11.11	0.0107531
9840.30	10.77	0.0105824
9860.30	10.44	0.0107118
9880.30	10.11	0.0105959
9900.30	9.77	0.0105402
9920.30	9.44	0.0103339
9940.30	9.10	0.0102064
9960.30	8.77	0.0100806
9980.30	8.44	9.94132e-3
10000.3	8.10	9.80823e-3
10020.3	7.77	9.83358e-3
10040.3	7.44	9.71208e-3
10060.3	7.11	9.56458e-3
10080.3	6.77	9.54291e-3
10100.3	6.44	9.51873e-3
10120.3	6.11	9.36390e-3
10140.3	5.77	9.35128e-3
10160.3	5.44	9.31896e-3
10180.3	5.10	9.81084e-3
10200.3	4.77	9.33553e-3
10220.3	4.44	9.25970e-3
10240.3	4.10	9.12568e-3
10260.3	3.77	9.19350e-3
10280.3	3.44	9.04381e-3
10300.3	3.10	8.96864e-3
10320.3	2.77	8.89371e-3
10340.3	2.44	8.87869e-3
10360.3	2.11	8.85810e-3
10380.3	1.77	9.05379e-3
10400.3	1.44	8.93246e-3
10420.3	1.10	8.82574e-3
10440.3	0.77	8.79089e-3
10460.3	0.44	8.76278e-3
10480.3	0.10	9.02777e-3
10500.2	-0.23	8.87544e-3

File: 12OCB SqA wt fraction 095.txt
Filename	12OCBSqA095
Instrument name	DSC2A-00101 (192.168.10.4)
Operator	Yuma
rundate	3/13/2021
Sample name	12OCBSqA095
proceduresegments	Data Off ; Equilibrate 150.00 °C; Isothermal 10.0 min; Equilibrate 100.00 °C; Isothermal 5.0 min; Data On ; Ramp 1.00 °C/min to 0.00 °C; Ramp 5.00 °C/min to 150.00 °C; Data Off ; Isothermal 10.0 min; Modulate Temperature 1.00 °C for 60.0 s; Equilibrate 100.00 °C; Isothermal 10.0 min; Data On ; Ramp 1.00 °C/min to 0.00 °C; Data Off ; Equilibrate 0.00 °C; Modulate Temperature 1.00 °C for 60.0 s; Isothermal 5.0 min; Data On ; Ramp 3.00 °C/min to 100.00 °C; Jump 30.00 °C
[step]
Ramp 1.00 °C/min to 0.00 °C
Time	Temperature	Heat Flow (Normalized)
s	°C	W/g
0.00000	99.85	6.49621e-3
20.0000	99.67	0.0237706
40.0000	99.35	0.0360403
60.0000	99.02	0.0379213
80.0000	98.69	0.0386558
100.000	98.35	0.0388516
120.000	98.02	0.0389189
140.000	97.69	0.0389115
160.000	97.35	0.0389205
180.000	97.02	0.0389440
200.000	96.69	0.0389447
220.000	96.35	0.0389742
240.000	96.02	0.0389448
260.000	95.69	0.0389624
280.000	95.36	0.0389142
300.000	95.02	0.0389181
320.000	94.69	0.0388973
340.000	94.36	0.0389279
360.000	94.02	0.0389083
380.000	93.69	0.0389408
400.000	93.36	0.0389713
420.000	93.02	0.0389696
440.000	92.69	0.0389514
460.000	92.36	0.0389660
480.000	92.02	0.0389611
500.000	91.69	0.0389876
520.000	91.36	0.0389786
540.000	91.02	0.0389918
560.000	90.69	0.0390244
580.000	90.36	0.0389731
600.000	90.02	0.0390365
620.000	89.69	0.0390955
640.000	89.36	0.0390810
660.000	89.02	0.0391615
680.000	88.69	0.0391619
700.000	88.36	0.0392122
720.000	88.02	0.0392033
740.000	87.69	0.0392198
760.000	87.36	0.0392788
780.000	87.02	0.0393270
800.000	86.69	0.0393713
820.000	86.36	0.0393890
840.000	86.02	0.0393858
860.000	85.69	0.0395190
880.000	85.36	0.0395017
900.000	85.02	0.0395841
920.000	84.69	0.0396772
940.000	84.36	0.0397554
960.000	84.02	0.0398332
980.000	83.69	0.0399091
1000.00	83.36	0.0399562
1020.00	83.03	0.0400597
1040.00	82.69	0.0406979
1060.00	82.37	0.0451685
1080.00	82.05	0.0643349
1100.00	81.72	0.0683925
1120.00	81.39	0.0690700
1140.00	81.05	0.0676053
1160.00	80.72	0.0669670
1180.00	80.39	0.0679280
1200.00	80.06	0.0697128
1220.00	79.73	0.0740421
1240.00	79.39	0.0769190
1260.00	79.06	0.0751694
1280.00	78.72	0.0719494
1300.00	78.38	0.0683395
1320.00	78.05	0.0648492
1340.00	77.71	0.0620397
1360.00	77.37	0.0597094
1380.00	77.04	0.0576185
1400.00	76.71	0.0558477
1420.00	76.37	0.0541626
1440.00	76.04	0.0528240
1460.00	75.70	0.0516652
1480.00	75.37	0.0506652
1500.00	75.03	0.0496906
1520.00	74.70	0.0487719
1540.00	74.36	0.0479179
1560.00	74.03	0.0471576
1580.00	73.70	0.0464669
1600.00	73.36	0.0458091
1620.00	73.03	0.0451913
1640.00	72.69	0.0445889
1660.00	72.36	0.0440605
1680.00	72.03	0.0435547
1700.00	71.69	0.0431086
1720.00	71.36	0.0426529
1740.00	71.03	0.0422939
1760.00	70.69	0.0419017
1780.00	70.36	0.0415407
1800.00	70.02	0.0412585
1820.00	69.69	0.0408482
1840.00	69.36	0.0406041
1860.00	69.02	0.0403355
1880.00	68.69	0.0401056
1900.00	68.36	0.0398237
1920.00	68.03	0.0395964
1940.00	67.69	0.0394076
1960.00	67.36	0.0392512
1980.00	67.02	0.0390360
2000.00	66.69	0.0388779
2020.00	66.36	0.0387400
2040.00	66.02	0.0386228
2060.00	65.69	0.0385137
2080.00	65.36	0.0384065
2100.00	65.02	0.0382719
2120.00	64.69	0.0381539
2140.00	64.36	0.0380928
2160.00	64.02	0.0380086
2180.00	63.69	0.0378903
2200.00	63.36	0.0379272
2220.00	63.02	0.0378459
2240.00	62.69	0.0377441
2260.00	62.36	0.0377078
2280.00	62.02	0.0376848
2300.00	61.69	0.0376075
2320.00	61.35	0.0375681
2340.00	61.02	0.0375345
2360.00	60.69	0.0375357
2380.00	60.36	0.0374691
2400.00	60.02	0.0373953
2420.00	59.69	0.0373720
2440.00	59.35	0.0373409
2460.00	59.02	0.0372612
2480.00	58.69	0.0372329
2500.00	58.36	0.0372091
2520.00	58.02	0.0371991
2540.00	57.69	0.0371586
2560.00	57.35	0.0370833
2580.00	57.02	0.0371131
2600.00	56.69	0.0370984
2620.00	56.35	0.0370259
2640.00	56.02	0.0369806
2660.00	55.69	0.0369162
2680.00	55.36	0.0368962
2700.00	55.02	0.0368755
2720.00	54.69	0.0368809
2740.00	54.35	0.0368457
2760.00	54.02	0.0367454
2780.00	53.69	0.0367420
2800.00	53.35	0.0367635
2820.00	53.02	0.0366503
2840.00	52.69	0.0366462
2860.00	52.35	0.0366570
2880.00	52.02	0.0365903
2900.00	51.69	0.0365532
2920.00	51.35	0.0365410
2940.00	51.02	0.0365086
2960.00	50.69	0.0364174
2980.00	50.35	0.0364605
3000.00	50.02	0.0364073
3020.00	49.69	0.0363883
3040.00	49.35	0.0363584
3060.00	49.02	0.0363497
3080.00	48.69	0.0363302
3100.00	48.35	0.0362537
3120.00	48.02	0.0362385
3140.00	47.69	0.0362189
3160.00	47.35	0.0363224
3180.00	47.02	0.0361848
3200.00	46.69	0.0360887
3220.00	46.35	0.0360484
3240.00	46.02	0.0360729
3260.00	45.69	0.0360940
3280.00	45.35	0.0359901
3300.00	45.02	0.0359921
3320.00	46.91	2.06314
3340.00	48.10	3.84168
3360.00	44.33	0.400034
3380.00	43.71	0.0610561
3400.00	43.35	0.0358829
3420.00	43.02	0.0331883
3440.00	42.68	0.0319392
3460.00	42.35	0.0314439
3480.00	42.01	0.0311378
3500.00	41.68	0.0308968
3520.00	41.35	0.0307363
3540.00	41.02	0.0313394
3560.00	40.68	0.0317752
3580.00	40.35	0.0310800
3600.00	40.01	0.0304909
3620.00	39.68	0.0302329
3640.00	39.35	0.0300784
3660.00	39.01	0.0299886
3680.00	38.68	0.0300130
3700.00	38.35	0.0298866
3720.00	38.01	0.0297540
3740.00	37.68	0.0296654
3760.00	37.35	0.0296461
3780.00	37.01	0.0295597
3800.00	36.68	0.0295283
3820.00	36.35	0.0294741
3840.00	36.01	0.0293292
3860.00	35.68	0.0292974
3880.00	35.35	0.0292531
3900.00	35.01	0.0291511
3920.00	34.68	0.0291371
3940.00	34.35	0.0290725
3960.00	34.01	0.0289881
3980.00	33.68	0.0289769
4000.00	33.35	0.0289332
4020.00	33.01	0.0288559
4040.00	32.68	0.0287626
4060.00	32.34	0.0287149
4080.00	32.01	0.0286295
4100.00	31.68	0.0285622
4120.00	31.35	0.0285109
4140.00	31.01	0.0284888
4160.00	30.68	0.0284730
4180.00	30.35	0.0284006
4200.00	30.01	0.0282957
4220.00	29.68	0.0282813
4240.00	29.35	0.0282496
4260.00	29.01	0.0282011
4280.00	28.68	0.0281028
4300.00	28.34	0.0280973
4320.00	28.01	0.0280394
4340.00	27.68	0.0280036
4360.00	27.34	0.0279181
4380.00	27.01	0.0278904
4400.00	26.68	0.0278306
4420.00	26.34	0.0277754
4440.00	26.01	0.0277157
4460.00	25.68	0.0276877
4480.00	25.34	0.0276710
4500.00	25.01	0.0276450
4520.00	24.68	0.0275073
4540.00	24.34	0.0274026
4560.00	24.01	0.0273990
4580.00	23.68	0.0273580
4600.00	23.34	0.0273361
4620.00	23.01	0.0272728
4640.00	22.68	0.0272229
4660.00	22.34	0.0271755
4680.00	22.01	0.0271244
4700.00	21.68	0.0271046
4720.00	21.34	0.0270934
4740.00	21.01	0.0270274
4760.00	20.68	0.0269507
4780.00	20.34	0.0269154
4800.00	20.01	0.0268427
4820.00	19.68	0.0267295
4840.00	19.34	0.0267305
4860.00	19.01	0.0266906
4880.00	18.67	0.0266744
4900.00	18.34	0.0266053
4920.00	18.01	0.0265810
4940.00	17.67	0.0265184
4960.00	17.34	0.0264787
4980.00	17.01	0.0264188
5000.00	16.68	0.0263903
5020.00	16.34	0.0263235
5040.00	16.01	0.0263022
5060.00	15.68	0.0262567
5080.00	15.34	0.0262219
5100.00	15.01	0.0261340
5120.00	14.67	0.0260814
5140.00	14.34	0.0259916
5160.00	14.01	0.0260386
5180.00	13.67	0.0259329
5200.00	13.34	0.0258817
5220.00	13.01	0.0258408
5240.00	12.67	0.0257982
5260.00	12.34	0.0257441
5280.00	12.01	0.0257339
5300.00	11.67	0.0256796
5320.00	11.34	0.0256513
5340.00	11.01	0.0255954
5360.00	10.67	0.0255381
5380.00	10.34	0.0254908
5400.00	10.01	0.0254545
5420.00	9.67	0.0254358
5440.00	9.34	0.0253988
5460.00	9.01	0.0253468
5480.00	8.67	0.0252859
5500.00	8.34	0.0251847
5520.00	8.01	0.0251499
5540.00	7.67	0.0251100
5560.00	7.34	0.0250417
5580.00	7.01	0.0249719
5600.00	6.67	0.0249477
5620.00	6.34	0.0248951
5640.00	6.01	0.0248956
5660.00	5.67	0.0248172
5680.00	5.34	0.0247322
5700.00	5.01	0.0247303
5720.00	4.67	0.0247253
5740.00	4.34	0.0246833
5760.00	4.01	0.0246868
5780.00	3.67	0.0246476
5800.00	3.34	0.0245467
5820.00	3.01	0.0245095
5840.00	2.67	0.0244963
5860.00	2.34	0.0244508
5880.00	2.00	0.0244537
5900.00	1.67	0.0243836
5920.00	1.34	0.0243525
5940.00	1.00	0.0243262
5960.00	0.67	0.0243169
5980.00	0.34	0.0242854
5999.90	0.01	0.0242514

File: 12OCB SqA wt fraction 150.txt
Filename	12OCBSqA150
Instrument name	DSC2A-00101 (192.168.10.4)
Operator	Yuma
rundate	3/11/2021
Sample name	12OCBSqA150
proceduresegments	Data Off ; Equilibrate 150.00 °C; Isothermal 10.0 min; Equilibrate 100.00 °C; Isothermal 5.0 min; Data On ; Ramp 1.00 °C/min to 0.00 °C; Ramp 5.00 °C/min to 150.00 °C; Data Off ; Isothermal 10.0 min; Modulate Temperature 1.00 °C for 60.0 s; Equilibrate 100.00 °C; Isothermal 10.0 min; Data On ; Ramp 1.00 °C/min to 0.00 °C; Data Off ; Equilibrate 0.00 °C; Modulate Temperature 1.00 °C for 60.0 s; Isothermal 5.0 min; Data On ; Ramp 3.00 °C/min to 100.00 °C; Jump 30.00 °C
[step]
Ramp 1.00 °C/min to 0.00 °C
Time	Temperature	Heat Flow (Normalized)
s	°C	W/g
0.00000	99.85	0.0101372
20.0000	99.66	0.0240265
40.0000	99.33	0.0340213
60.0000	99.00	0.0364460
80.0000	98.67	0.0371117
100.000	98.34	0.0373117
120.000	98.00	0.0373200
140.000	97.67	0.0373278
160.000	97.34	0.0372955
180.000	97.00	0.0372566
200.000	96.67	0.0372553
220.000	96.34	0.0372607
240.000	96.00	0.0372360
260.000	95.67	0.0372482
280.000	95.34	0.0371875
300.000	95.00	0.0371895
320.000	94.67	0.0371539
340.000	94.34	0.0371531
360.000	94.00	0.0371188
380.000	93.67	0.0371054
400.000	93.34	0.0371084
420.000	93.00	0.0370609
440.000	92.67	0.0370858
460.000	92.34	0.0371195
480.000	92.00	0.0370261
500.000	91.67	0.0370656
520.000	91.33	0.0370215
540.000	91.00	0.0370052
560.000	90.67	0.0369976
580.000	90.33	0.0370526
600.000	90.00	0.0370022
620.000	89.67	0.0369299
640.000	89.34	0.0369386
660.000	89.00	0.0369678
680.000	88.67	0.0369558
700.000	88.33	0.0369944
720.000	88.00	0.0369349
740.000	87.67	0.0369490
760.000	87.34	0.0369554
780.000	87.00	0.0369513
800.000	86.67	0.0369404
820.000	86.33	0.0369734
840.000	86.00	0.0369810
860.000	85.67	0.0370023
880.000	85.34	0.0369179
900.000	85.00	0.0370264
920.000	84.67	0.0370679
940.000	84.34	0.0370548
960.000	84.00	0.0370130
980.000	83.67	0.0370083
1000.00	83.33	0.0370448
1020.00	83.00	0.0370820
1040.00	82.67	0.0371511
1060.00	82.34	0.0371488
1080.00	82.00	0.0373142
1100.00	81.67	0.0372786
1120.00	81.34	0.0373743
1140.00	81.00	0.0373805
1160.00	80.67	0.0373916
1180.00	80.34	0.0374194
1200.00	80.00	0.0375511
1220.00	79.67	0.0376066
1240.00	79.34	0.0377232
1260.00	79.00	0.0378168
1280.00	78.67	0.0378930
1300.00	78.34	0.0379526
1320.00	78.00	0.0380468
1340.00	77.67	0.0394530
1360.00	77.35	0.0549404
1380.00	77.03	0.0942633
1400.00	76.69	0.0848083
1420.00	76.35	0.0755602
1440.00	76.02	0.0692536
1460.00	75.68	0.0667949
1480.00	75.35	0.0645994
1500.00	75.01	0.0627414
1520.00	74.68	0.0609698
1540.00	74.35	0.0592879
1560.00	74.01	0.0577527
1580.00	73.68	0.0561813
1600.00	73.34	0.0548564
1620.00	73.01	0.0536072
1640.00	72.68	0.0525203
1660.00	72.34	0.0514577
1680.00	72.01	0.0505609
1700.00	71.67	0.0496241
1720.00	71.34	0.0487059
1740.00	71.01	0.0478791
1760.00	70.67	0.0470937
1780.00	70.34	0.0463390
1800.00	70.01	0.0456059
1820.00	69.67	0.0449088
1840.00	69.34	0.0443364
1860.00	69.01	0.0437061
1880.00	68.67	0.0430711
1900.00	68.34	0.0425797
1920.00	68.00	0.0420925
1940.00	67.67	0.0415803
1960.00	67.34	0.0411307
1980.00	67.00	0.0406578
2000.00	66.67	0.0402969
2020.00	66.34	0.0398742
2040.00	66.00	0.0395098
2060.00	65.67	0.0391389
2080.00	65.34	0.0387634
2100.00	65.00	0.0384416
2120.00	64.67	0.0380469
2140.00	64.34	0.0377585
2160.00	64.00	0.0374995
2180.00	63.67	0.0373164
2200.00	63.34	0.0373601
2220.00	63.00	0.0371277
2240.00	62.67	0.0369850
2260.00	62.33	0.0368479
2280.00	62.00	0.0366960
2300.00	61.67	0.0365464
2320.00	61.34	0.0362937
2340.00	61.00	0.0362221
2360.00	60.67	0.0360375
2380.00	60.33	0.0359322
2400.00	60.00	0.0358333
2420.00	59.67	0.0357237
2440.00	59.33	0.0356648
2460.00	59.00	0.0355526
2480.00	58.67	0.0354988
2500.00	58.33	0.0354443
2520.00	58.00	0.0353722
2540.00	57.67	0.0352453
2560.00	57.33	0.0351689
2580.00	57.00	0.0351465
2600.00	56.67	0.0350493
2620.00	56.33	0.0349744
2640.00	56.00	0.0349352
2660.00	55.67	0.0348537
2680.00	55.33	0.0348058
2700.00	55.00	0.0347384
2720.00	54.67	0.0347340
2740.00	54.33	0.0347220
2760.00	54.00	0.0346540
2780.00	53.67	0.0346179
2800.00	53.33	0.0345747
2820.00	53.00	0.0345050
2840.00	52.67	0.0344462
2860.00	52.33	0.0343902
2880.00	52.00	0.0344068
2900.00	51.67	0.0342715
2920.00	51.33	0.0342524
2940.00	51.00	0.0342822
2960.00	50.67	0.0341134
2980.00	50.33	0.0341235
3000.00	50.00	0.0340646
3020.00	49.67	0.0340100
3040.00	49.33	0.0339996
3060.00	49.00	0.0340064
3080.00	48.66	0.0339596
3100.00	48.33	0.0339652
3120.00	48.00	0.0337862
3140.00	48.90	2.33054
3160.00	48.69	2.51012
3180.00	47.12	0.341501
3200.00	46.67	0.0501742
3220.00	46.33	0.0362303
3240.00	46.00	0.0333256
3260.00	45.66	0.0320978
3280.00	45.33	0.0314183
3300.00	45.00	0.0309920
3320.00	44.66	0.0306384
3340.00	44.33	0.0304110
3360.00	44.00	0.0302103
3380.00	43.66	0.0300285
3400.00	43.33	0.0298729
3420.00	43.00	0.0296903
3440.00	42.66	0.0295151
3460.00	42.33	0.0293888
3480.00	42.00	0.0292050
3500.00	41.66	0.0291201
3520.00	41.33	0.0290557
3540.00	41.00	0.0288556
3560.00	40.66	0.0288159
3580.00	40.33	0.0287165
3600.00	40.00	0.0286434
3620.00	39.66	0.0285403
3640.00	39.33	0.0284548
3660.00	39.00	0.0283771
3680.00	38.66	0.0283172
3700.00	38.33	0.0281964
3720.00	38.00	0.0280780
3740.00	37.66	0.0279700
3760.00	37.33	0.0278341
3780.00	36.99	0.0278017
3800.00	36.66	0.0277091
3820.00	36.33	0.0276133
3840.00	36.00	0.0275572
3860.00	35.66	0.0274718
3880.00	35.33	0.0274006
3900.00	34.99	0.0273516
3920.00	34.66	0.0272301
3940.00	34.33	0.0271885
3960.00	33.99	0.0271263
3980.00	33.66	0.0270465
4000.00	33.33	0.0269362
4020.00	33.00	0.0269216
4040.00	32.66	0.0268617
4060.00	32.33	0.0268156
4080.00	32.00	0.0267289
4100.00	31.66	0.0267178
4120.00	31.33	0.0266615
4140.00	30.99	0.0266171
4160.00	30.66	0.0265658
4180.00	30.33	0.0264696
4200.00	29.99	0.0264335
4220.00	29.66	0.0264236
4240.00	29.33	0.0263846
4260.00	28.99	0.0263706
4280.00	28.66	0.0264092
4300.00	28.33	0.0268681
4320.00	27.99	0.0266152
4340.00	27.66	0.0263895
4360.00	27.33	0.0263015
4380.00	26.99	0.0262461
4400.00	26.66	0.0261017
4420.00	26.33	0.0260535
4440.00	25.99	0.0259732
4460.00	25.66	0.0258602
4480.00	25.33	0.0260936
4500.00	24.99	0.0263103
4520.00	24.66	0.0257857
4540.00	24.33	0.0255134
4560.00	23.99	0.0253801
4580.00	23.66	0.0253039
4600.00	23.33	0.0252496
4620.00	22.99	0.0251751
4640.00	22.66	0.0251425
4660.00	22.33	0.0250753
4680.00	21.99	0.0250714
4700.00	21.66	0.0249346
4720.00	21.32	0.0248738
4740.00	20.99	0.0247557
4760.00	20.66	0.0247348
4780.00	20.33	0.0246988
4800.00	19.99	0.0246909
4820.00	19.66	0.0246548
4840.00	19.32	0.0245881
4860.00	18.99	0.0245358
4880.00	18.66	0.0244398
4900.00	18.32	0.0243932
4920.00	17.99	0.0242932
4940.00	17.66	0.0242834
4960.00	17.33	0.0242396
4980.00	16.99	0.0241893
5000.00	16.66	0.0241261
5020.00	16.32	0.0240752
5040.00	15.99	0.0239807
5060.00	15.66	0.0240047
5080.00	15.32	0.0238894
5100.00	14.99	0.0238962
5120.00	14.66	0.0238057
5140.00	14.32	0.0237512
5160.00	13.99	0.0236492
5180.00	13.66	0.0236170
5200.00	13.32	0.0236084
5220.00	12.99	0.0235118
5240.00	12.66	0.0234498
5260.00	12.32	0.0234538
5280.00	11.99	0.0233854
5300.00	11.66	0.0233811
5320.00	11.32	0.0233412
5340.00	10.99	0.0231684
5360.00	10.66	0.0230858
5380.00	10.32	0.0230833
5400.00	9.99	0.0229830
5420.00	9.66	0.0229395
5440.00	9.32	0.0229052
5460.00	8.99	0.0228501
5480.00	8.66	0.0227912
5500.00	8.32	0.0227062
5520.00	7.99	0.0226852
5540.00	7.66	0.0226686
5560.00	7.32	0.0225844
5580.00	6.99	0.0225157
5600.00	6.66	0.0224529
5620.00	6.32	0.0223436
5640.00	5.99	0.0223455
5660.00	5.66	0.0222398
5680.00	5.32	0.0222204
5700.00	4.99	0.0221954
5720.00	4.66	0.0221815
5740.00	4.32	0.0220894
5760.00	3.99	0.0220806
5780.00	3.66	0.0220286
5800.00	3.32	0.0219658
5820.00	2.99	0.0219474
5840.00	2.66	0.0219234
5860.00	2.32	0.0219482
5880.00	1.99	0.0218900
5900.00	1.65	0.0218972
5920.00	1.32	0.0217930
5940.00	0.99	0.0217999
5960.00	0.66	0.0218488
5980.00	0.32	0.0218297
5999.90	-0.01	0.0217520