Folder: StructuralDiversity/Differential scanning calorimetry/12OCB Squalane (part 2)

File: 12OCB SqA wt fraction 288.txt
Filename	12OCBSqA288
Instrument name	DSC2A-00101 (192.168.10.4)
Operator	Yuma
rundate	3/11/2021
Sample name	12OCBSqA288
proceduresegments	Data Off ; Equilibrate 150.00 °C; Isothermal 10.0 min; Equilibrate 100.00 °C; Isothermal 5.0 min; Data On ; Ramp 1.00 °C/min to 0.00 °C; Ramp 5.00 °C/min to 150.00 °C; Data Off ; Isothermal 10.0 min; Modulate Temperature 1.00 °C for 60.0 s; Equilibrate 100.00 °C; Isothermal 10.0 min; Data On ; Ramp 1.00 °C/min to 0.00 °C; Data Off ; Equilibrate 0.00 °C; Modulate Temperature 1.00 °C for 60.0 s; Isothermal 5.0 min; Data On ; Ramp 3.00 °C/min to 100.00 °C; Jump 30.00 °C
[step]
Ramp 1.00 °C/min to 0.00 °C
Time	Temperature	Heat Flow (Normalized)
s	°C	W/g
0.00000	99.85	0.0187943
20.0000	99.65	0.0241002
40.0000	99.32	0.0353972
60.0000	98.99	0.0389945
80.0000	98.66	0.0399609
100.000	98.33	0.0401470
120.000	97.99	0.0401241
140.000	97.66	0.0401741
160.000	97.33	0.0401240
180.000	96.99	0.0401297
200.000	96.66	0.0401057
220.000	96.33	0.0399924
240.000	95.99	0.0400120
260.000	95.66	0.0400912
280.000	95.33	0.0399830
300.000	94.99	0.0399484
320.000	94.66	0.0399253
340.000	94.33	0.0399211
360.000	93.99	0.0398532
380.000	93.66	0.0398455
400.000	93.33	0.0398244
420.000	92.99	0.0397306
440.000	92.66	0.0397200
460.000	92.33	0.0396593
480.000	91.99	0.0396985
500.000	91.66	0.0397022
520.000	91.33	0.0397089
540.000	90.99	0.0397220
560.000	90.66	0.0397382
580.000	90.33	0.0396262
600.000	89.99	0.0396456
620.000	89.66	0.0396191
640.000	89.33	0.0395975
660.000	88.99	0.0396338
680.000	88.66	0.0395905
700.000	88.33	0.0395717
720.000	87.99	0.0394944
740.000	87.66	0.0394885
760.000	87.33	0.0394746
780.000	86.99	0.0394988
800.000	86.66	0.0394649
820.000	86.33	0.0395095
840.000	85.99	0.0396003
860.000	85.66	0.0395717
880.000	85.33	0.0394720
900.000	84.99	0.0394422
920.000	84.66	0.0394806
940.000	84.33	0.0394138
960.000	83.99	0.0394708
980.000	83.66	0.0394123
1000.00	83.33	0.0394531
1020.00	82.99	0.0393619
1040.00	82.66	0.0394057
1060.00	82.33	0.0394700
1080.00	81.99	0.0393222
1100.00	81.66	0.0393734
1120.00	81.33	0.0394085
1140.00	80.99	0.0394456
1160.00	80.66	0.0394175
1180.00	80.33	0.0393453
1200.00	79.99	0.0393762
1220.00	79.66	0.0394377
1240.00	79.33	0.0394488
1260.00	78.99	0.0394500
1280.00	78.66	0.0394906
1300.00	78.33	0.0394576
1320.00	77.99	0.0394847
1340.00	77.66	0.0394856
1360.00	77.33	0.0394464
1380.00	76.99	0.0395002
1400.00	76.66	0.0396173
1420.00	76.33	0.0395973
1440.00	75.99	0.0396409
1460.00	75.66	0.0396906
1480.00	75.33	0.0397701
1500.00	74.99	0.0397382
1520.00	74.66	0.0397057
1540.00	74.33	0.0397934
1560.00	73.99	0.0398990
1580.00	73.66	0.0400080
1600.00	73.33	0.0400912
1620.00	72.99	0.0402852
1640.00	72.66	0.0404194
1660.00	72.33	0.0404724
1680.00	71.99	0.0407748
1700.00	71.66	0.0457779
1720.00	71.34	0.0843085
1740.00	71.00	0.0739349
1760.00	70.67	0.0682649
1780.00	70.33	0.0660034
1800.00	70.00	0.0642531
1820.00	69.67	0.0630498
1840.00	69.33	0.0622090
1860.00	69.00	0.0607499
1880.00	68.67	0.0597137
1900.00	68.33	0.0588167
1920.00	68.00	0.0577089
1940.00	67.66	0.0567743
1960.00	67.33	0.0558974
1980.00	67.00	0.0551219
2000.00	66.66	0.0542847
2020.00	66.33	0.0535362
2040.00	66.00	0.0527822
2060.00	65.66	0.0520640
2080.00	65.33	0.0513794
2100.00	65.00	0.0506429
2120.00	64.66	0.0500284
2140.00	64.33	0.0492593
2160.00	64.00	0.0485840
2180.00	63.66	0.0480106
2200.00	63.33	0.0473720
2220.00	62.99	0.0468487
2240.00	62.66	0.0463117
2260.00	62.33	0.0457418
2280.00	61.99	0.0452587
2300.00	61.66	0.0447410
2320.00	61.33	0.0442345
2340.00	60.99	0.0438104
2360.00	60.66	0.0434410
2380.00	60.33	0.0430219
2400.00	59.99	0.0426156
2420.00	59.66	0.0423645
2440.00	59.33	0.0419680
2460.00	58.99	0.0417201
2480.00	58.66	0.0414053
2500.00	58.33	0.0412344
2520.00	57.99	0.0409091
2540.00	57.66	0.0407323
2560.00	57.33	0.0404811
2580.00	56.99	0.0403237
2600.00	56.66	0.0401790
2620.00	56.33	0.0401290
2640.00	55.99	0.0398816
2660.00	55.66	0.0396744
2680.00	55.33	0.0395742
2700.00	54.99	0.0395237
2720.00	54.66	0.0393462
2740.00	54.32	0.0392214
2760.00	53.99	0.0391724
2780.00	53.66	0.0391328
2800.00	53.33	0.0389347
2820.00	52.99	0.0389862
2840.00	52.66	0.0388576
2860.00	52.33	0.0387090
2880.00	51.99	0.0386863
2900.00	51.66	0.0386190
2920.00	51.33	0.0385761
2940.00	50.99	0.0384612
2960.00	50.66	0.0384022
2980.00	50.33	0.0383138
3000.00	49.99	0.0382394
3020.00	49.66	0.0380907
3040.00	49.33	0.0381168
3060.00	48.99	0.0382086
3080.00	48.66	0.0380786
3100.00	48.32	0.0379875
3120.00	47.99	0.0378987
3140.00	47.66	0.0388358
3160.00	47.35	-0.0226741
3180.00	47.65	2.26225
3200.00	46.99	1.49989
3220.00	46.34	0.0964986
3240.00	45.99	0.0473296
3260.00	45.66	0.0432224
3280.00	45.32	0.0391039
3300.00	44.99	0.0374311
3320.00	44.66	0.0368129
3340.00	44.32	0.0367103
3360.00	43.99	0.0359956
3380.00	43.66	0.0357664
3400.00	43.32	0.0354791
3420.00	42.99	0.0353330
3440.00	42.66	0.0350860
3460.00	42.32	0.0350208
3480.00	41.99	0.0348875
3500.00	41.66	0.0346806
3520.00	41.32	0.0345567
3540.00	40.99	0.0343808
3560.00	40.66	0.0342897
3580.00	40.32	0.0340825
3600.00	39.99	0.0339848
3620.00	39.66	0.0339385
3640.00	39.32	0.0338524
3660.00	38.99	0.0337056
3680.00	38.66	0.0336140
3700.00	38.32	0.0335477
3720.00	37.99	0.0335053
3740.00	37.66	0.0333894
3760.00	37.32	0.0333476
3780.00	36.99	0.0332221
3800.00	36.66	0.0332415
3820.00	36.32	0.0331386
3840.00	35.99	0.0331396
3860.00	35.66	0.0330443
3880.00	35.32	0.0330251
3900.00	34.99	0.0329650
3920.00	34.65	0.0328928
3940.00	34.32	0.0327675
3960.00	33.99	0.0326857
3980.00	33.66	0.0325649
4000.00	33.32	0.0325797
4020.00	32.99	0.0324955
4040.00	32.65	0.0323681
4060.00	32.32	0.0322700
4080.00	31.99	0.0323198
4100.00	31.66	0.0321963
4120.00	31.32	0.0320489
4140.00	30.99	0.0320024
4160.00	30.65	0.0319282
4180.00	30.32	0.0318926
4200.00	29.99	0.0317715
4220.00	29.65	0.0317249
4240.00	29.32	0.0317008
4260.00	28.99	0.0315813
4280.00	28.65	0.0315226
4300.00	28.32	0.0314416
4320.00	27.99	0.0314090
4340.00	27.66	0.0313071
4360.00	27.32	0.0312674
4380.00	26.99	0.0312094
4400.00	26.65	0.0310759
4420.00	26.32	0.0311363
4440.00	25.99	0.0309987
4460.00	25.65	0.0307689
4480.00	25.32	0.0307257
4500.00	24.99	0.0307930
4520.00	24.65	0.0305690
4540.00	24.32	0.0305532
4560.00	23.99	0.0304284
4580.00	23.65	0.0304033
4600.00	23.32	0.0303468
4620.00	22.99	0.0304036
4640.00	22.65	0.0303586
4660.00	22.32	0.0302504
4680.00	21.99	0.0301795
4700.00	21.65	0.0301711
4720.00	21.32	0.0300951
4740.00	20.99	0.0300282
4760.00	20.65	0.0299420
4780.00	20.32	0.0298423
4800.00	19.99	0.0298027
4820.00	19.65	0.0297069
4840.00	19.32	0.0296551
4860.00	18.99	0.0296632
4880.00	18.65	0.0295381
4900.00	18.32	0.0294216
4920.00	17.99	0.0293528
4940.00	17.65	0.0293697
4960.00	17.32	0.0292000
4980.00	16.99	0.0291971
5000.00	16.65	0.0291754
5020.00	16.32	0.0292280
5040.00	15.99	0.0290674
5060.00	15.65	0.0290330
5080.00	15.32	0.0289322
5100.00	14.99	0.0288173
5120.00	14.65	0.0288179
5140.00	14.32	0.0287567
5160.00	13.99	0.0286657
5180.00	13.65	0.0286972
5200.00	13.32	0.0286288
5220.00	12.98	0.0284645
5240.00	12.65	0.0285062
5260.00	12.32	0.0284401
5280.00	11.98	0.0283442
5300.00	11.65	0.0283743
5320.00	11.32	0.0281688
5340.00	10.98	0.0281189
5360.00	10.65	0.0280619
5380.00	10.32	0.0279995
5400.00	9.98	0.0279313
5420.00	9.65	0.0279567
5440.00	9.32	0.0278497
5460.00	8.98	0.0278325
5480.00	8.65	0.0277266
5500.00	8.32	0.0277656
5520.00	7.98	0.0276691
5540.00	7.65	0.0275749
5560.00	7.32	0.0274370
5580.00	6.99	0.0272846
5600.00	6.65	0.0272498
5620.00	6.32	0.0271899
5640.00	5.98	0.0271407
5660.00	5.65	0.0270518
5680.00	5.32	0.0269816
5700.00	4.98	0.0268882
5720.00	4.65	0.0268849
5740.00	4.32	0.0267929
5760.00	3.98	0.0268217
5780.00	3.65	0.0268171
5800.00	3.32	0.0267634
5820.00	2.98	0.0267882
5840.00	2.65	0.0267028
5860.00	2.32	0.0267565
5880.00	1.98	0.0267296
5900.00	1.65	0.0267044
5920.00	1.32	0.0267219
5940.00	0.98	0.0267314
5960.00	0.65	0.0267724
5980.00	0.32	0.0268031
5999.90	-0.01	0.0267946

File: 12OCB SqA wt fraction 424.txt
Filename	12OCBSqA424
Instrument name	DSC2A-00101 (192.168.10.4)
Operator	Yuma
rundate	3/16/2021
Sample name	12OCBSqA424
proceduresegments	Data Off ; Equilibrate 150.00 °C; Isothermal 10.0 min; Equilibrate 100.00 °C; Isothermal 5.0 min; Data On ; Ramp 1.00 °C/min to 0.00 °C; Ramp 5.00 °C/min to 150.00 °C; Data Off ; Isothermal 10.0 min; Modulate Temperature 1.00 °C for 60.0 s; Equilibrate 100.00 °C; Isothermal 10.0 min; Data On ; Ramp 1.00 °C/min to 0.00 °C; Data Off ; Equilibrate 0.00 °C; Modulate Temperature 1.00 °C for 60.0 s; Isothermal 5.0 min; Data On ; Ramp 3.00 °C/min to 100.00 °C; Jump 30.00 °C
[step]
Ramp 1.00 °C/min to 0.00 °C
Time	Temperature	Heat Flow (Normalized)
s	°C	W/g
0.00000	99.85	0.0171441
20.1000	99.66	0.0393391
40.2000	99.33	0.0479071
60.3000	98.99	0.0505055
80.4000	98.66	0.0511495
100.500	98.32	0.0514194
120.600	97.99	0.0513854
140.700	97.66	0.0513149
160.800	97.32	0.0513495
180.900	96.99	0.0512971
201.000	96.65	0.0513402
221.100	96.31	0.0513217
241.200	95.98	0.0513003
261.300	95.65	0.0512405
281.400	95.31	0.0511589
301.500	94.98	0.0511258
321.600	94.64	0.0511922
341.700	94.31	0.0511190
361.800	93.97	0.0510747
381.900	93.64	0.0509825
402.000	93.30	0.0509693
422.100	92.96	0.0509909
442.200	92.63	0.0509046
462.300	92.30	0.0509533
482.400	91.96	0.0509990
502.500	91.63	0.0509701
522.600	91.29	0.0509008
542.700	90.96	0.0508420
562.800	90.62	0.0509348
582.900	90.28	0.0508557
603.000	89.95	0.0508530
623.100	89.61	0.0508254
643.200	89.28	0.0508231
663.300	88.95	0.0507165
683.400	88.61	0.0507844
703.500	88.27	0.0508009
723.600	87.94	0.0507730
743.700	87.60	0.0506984
763.800	87.27	0.0507347
783.900	86.94	0.0506926
804.000	86.60	0.0507484
824.100	86.27	0.0506811
844.200	85.93	0.0507140
864.300	85.59	0.0507077
884.400	85.26	0.0507410
904.500	84.92	0.0506971
924.600	84.59	0.0507450
944.700	84.25	0.0506111
964.800	83.92	0.0505479
984.900	83.58	0.0506502
1005.00	83.25	0.0505683
1025.10	82.92	0.0505861
1045.20	82.58	0.0505738
1065.30	82.25	0.0505553
1085.40	81.91	0.0505672
1105.50	81.58	0.0505480
1125.60	81.24	0.0504985
1145.70	80.91	0.0505780
1165.80	80.57	0.0506317
1185.90	80.24	0.0505689
1206.00	79.90	0.0504818
1226.10	79.57	0.0504984
1246.20	79.23	0.0505147
1266.30	78.90	0.0506058
1286.40	78.56	0.0506239
1306.50	78.23	0.0505671
1326.60	77.89	0.0505279
1346.70	77.56	0.0506093
1366.80	77.22	0.0506028
1386.90	76.89	0.0505698
1407.00	76.55	0.0505277
1427.10	76.21	0.0505906
1447.20	75.88	0.0505435
1467.30	75.55	0.0505599
1487.40	75.21	0.0505831
1507.50	74.88	0.0505815
1527.60	74.54	0.0505608
1547.70	74.21	0.0505701
1567.80	73.87	0.0505567
1587.90	73.54	0.0505719
1608.00	73.20	0.0505494
1628.10	72.87	0.0505282
1648.20	72.53	0.0506074
1668.30	72.20	0.0506020
1688.40	71.86	0.0506297
1708.50	71.53	0.0506765
1728.60	71.19	0.0507566
1748.70	70.86	0.0507366
1768.80	70.52	0.0508097
1788.90	70.18	0.0507853
1809.00	69.85	0.0508127
1829.10	69.51	0.0508957
1849.20	69.18	0.0508953
1869.30	68.85	0.0508948
1889.40	68.51	0.0509399
1909.50	68.17	0.0509229
1929.60	67.84	0.0510247
1949.70	67.50	0.0511331
1969.80	67.17	0.0512057
1989.90	66.83	0.0512670
2010.00	66.50	0.0513761
2030.10	66.19	0.104997
2050.20	65.84	0.0910270
2070.30	65.51	0.0847797
2090.40	65.17	0.0809905
2110.50	64.84	0.0786035
2130.60	64.50	0.0768233
2150.70	64.16	0.0750915
2170.80	63.83	0.0736694
2190.90	63.49	0.0721576
2211.00	63.16	0.0707477
2231.10	62.82	0.0694014
2251.20	62.49	0.0680477
2271.30	62.15	0.0667660
2291.40	61.82	0.0656137
2311.50	61.48	0.0646100
2331.60	61.15	0.0634838
2351.70	60.81	0.0625968
2371.80	60.47	0.0616567
2391.90	60.14	0.0608231
2412.00	59.80	0.0600790
2432.10	59.47	0.0593436
2452.20	59.13	0.0587217
2472.30	58.80	0.0581194
2492.40	58.46	0.0574553
2512.50	58.13	0.0569320
2532.60	57.79	0.0565106
2552.70	57.46	0.0560397
2572.80	57.12	0.0556404
2592.90	56.79	0.0552453
2613.00	56.45	0.0549065
2633.10	56.12	0.0546154
2653.20	55.78	0.0543365
2673.30	55.45	0.0540054
2693.40	55.11	0.0537441
2713.50	54.78	0.0534539
2733.60	54.44	0.0533261
2753.70	54.11	0.0530895
2773.80	53.77	0.0529736
2793.90	53.43	0.0528132
2814.00	53.10	0.0525920
2834.10	52.76	0.0524329
2854.20	52.43	0.0522163
2874.30	52.09	0.0520849
2894.40	51.76	0.0519752
2914.50	51.42	0.0518398
2934.60	51.09	0.0516577
2954.70	50.76	0.0515165
2974.80	50.42	0.0514795
2994.90	50.08	0.0513685
3015.00	49.75	0.0512268
3035.10	49.42	0.0511454
3055.20	49.08	0.0510546
3075.30	48.74	0.0509525
3095.40	48.41	0.0508811
3115.50	48.07	0.0507909
3135.60	47.74	0.0506892
3155.70	47.40	0.0507468
3175.80	47.07	0.0505318
3195.90	46.73	0.0505250
3216.00	46.40	0.0503342
3236.10	46.06	0.0503668
3256.20	45.73	0.0503227
3276.30	45.39	0.0501562
3296.40	45.06	0.0500357
3316.50	44.72	0.0501402
3336.60	45.22	2.14309
3356.70	44.58	1.80829
3376.80	43.74	0.128152
3396.90	43.38	0.0552832
3417.00	43.05	0.0510698
3437.10	42.71	0.0495337
3457.20	42.38	0.0488327
3477.30	42.04	0.0485507
3497.40	41.71	0.0483373
3517.50	41.37	0.0480628
3537.60	41.04	0.0477765
3557.70	40.70	0.0476044
3577.80	40.37	0.0474218
3597.90	40.03	0.0471207
3618.00	39.70	0.0471004
3638.10	39.36	0.0468851
3658.20	39.03	0.0468129
3678.30	38.69	0.0467005
3698.40	38.36	0.0465756
3718.50	38.02	0.0464324
3738.60	37.69	0.0463237
3758.70	37.35	0.0462423
3778.80	37.02	0.0462280
3798.90	36.68	0.0462245
3819.00	36.35	0.0460250
3839.10	36.01	0.0459143
3859.20	35.68	0.0458713
3879.30	35.34	0.0457689
3899.40	35.01	0.0456868
3919.50	34.67	0.0455394
3939.60	34.34	0.0454310
3959.70	34.00	0.0454233
3979.80	33.67	0.0453661
3999.90	33.33	0.0452801
4020.00	33.00	0.0451633
4040.10	32.66	0.0450318
4060.20	32.33	0.0450192
4080.30	31.99	0.0449246
4100.40	31.66	0.0447321
4120.50	31.32	0.0447018
4140.60	30.98	0.0446861
4160.70	30.65	0.0445268
4180.80	30.32	0.0444235
4200.90	29.98	0.0443270
4221.00	29.64	0.0442256
4241.10	29.31	0.0441748
4261.20	28.98	0.0440452
4281.30	28.64	0.0439831
4301.40	28.31	0.0439836
4321.50	27.97	0.0440209
4341.60	27.63	0.0438150
4361.70	27.30	0.0437711
4381.80	26.96	0.0436110
4401.90	26.63	0.0434970
4422.00	26.30	0.0434737
4442.10	25.96	0.0434215
4462.20	25.62	0.0433024
4482.30	25.29	0.0432629
4502.40	24.95	0.0433041
4522.50	24.62	0.0432005
4542.60	24.28	0.0431658
4562.70	23.95	0.0430699
4582.80	23.61	0.0430140
4602.90	23.28	0.0429336
4623.00	22.94	0.0428600
4643.10	22.61	0.0427928
4663.20	22.27	0.0426663
4683.30	21.94	0.0426685
4703.40	21.60	0.0426133
4723.50	21.27	0.0425347
4743.60	20.93	0.0425157
4763.70	20.60	0.0423929
4783.80	20.26	0.0423265
4803.90	19.93	0.0422963
4824.00	19.59	0.0422619
4844.10	19.26	0.0422072
4864.20	18.92	0.0420862
4884.30	18.59	0.0420589
4904.40	18.25	0.0418969
4924.50	17.92	0.0419331
4944.60	17.58	0.0418206
4964.70	17.25	0.0417720
4984.80	16.91	0.0417812
5004.90	16.58	0.0416869
5025.00	16.24	0.0415804
5045.10	15.91	0.0414886
5065.20	15.57	0.0414805
5085.30	15.24	0.0414175
5105.40	14.90	0.0413161
5125.50	14.57	0.0412478
5145.60	14.23	0.0411500
5165.70	13.90	0.0411433
5185.80	13.56	0.0410690
5205.90	13.23	0.0410748
5226.00	12.89	0.0409220
5246.10	12.56	0.0408723
5266.20	12.22	0.0408391
5286.30	11.89	0.0408219
5306.40	11.55	0.0407648
5326.50	11.22	0.0407225
5346.60	10.88	0.0406428
5366.70	10.55	0.0406301
5386.80	10.21	0.0405097
5406.90	9.88	0.0404625
5427.00	9.54	0.0404426
5447.10	9.21	0.0403489
5467.20	8.87	0.0402989
5487.30	8.54	0.0401946
5507.40	8.20	0.0400837
5527.50	7.87	0.0400766
5547.60	7.53	0.0399939
5567.70	7.20	0.0400121
5587.80	6.86	0.0397668
5607.90	6.53	0.0397887
5628.00	6.19	0.0397265
5648.10	5.86	0.0396380
5668.20	5.52	0.0396263
5688.30	5.19	0.0396262
5708.40	4.85	0.0394816
5728.50	4.52	0.0394285
5748.60	4.18	0.0393277
5768.70	3.85	0.0393883
5788.80	3.51	0.0393155
5808.90	3.18	0.0393652
5829.00	2.84	0.0392983
5849.10	2.51	0.0393098
5869.20	2.17	0.0392156
5889.30	1.84	0.0392063
5909.40	1.50	0.0392159
5929.50	1.16	0.0392475
5949.60	0.83	0.0391636
5969.70	0.50	0.0391574
5989.80	0.16	0.0391876
6000.00	-0.01	0.0391265

File: 12OCB SqA wt fraction 603.txt
Filename	12OCBSqA603
Instrument name	DSC2A-00101 (192.168.10.4)
Operator	Yuma
rundate	4/12/2021
Sample name	12OCBSqA603
proceduresegments	Data Off ; Equilibrate 150.00 °C; Isothermal 10.0 min; Equilibrate 100.00 °C; Isothermal 5.0 min; Data On ; Ramp 1.00 °C/min to 0.00 °C; Ramp 5.00 °C/min to 150.00 °C; Data Off ; Isothermal 10.0 min; Modulate Temperature 1.00 °C for 60.0 s; Equilibrate 100.00 °C; Isothermal 10.0 min; Data On ; Ramp 1.00 °C/min to 0.00 °C; Data Off ; Equilibrate 0.00 °C; Modulate Temperature 1.00 °C for 60.0 s; Isothermal 5.0 min; Data On ; Ramp 3.00 °C/min to 100.00 °C; Jump 30.00 °C
[step]
Ramp 1.00 °C/min to 0.00 °C
Time	Temperature	Heat Flow (Normalized)
s	°C	W/g
0.00000	99.85	-2.35758e-3
20.0000	99.67	0.0162207
40.0000	99.35	0.0290486
60.0000	99.02	0.0310810
80.0000	98.69	0.0318107
100.000	98.35	0.0322058
120.000	98.02	0.0322991
140.000	97.69	0.0322253
160.000	97.35	0.0321746
180.000	97.02	0.0320773
200.000	96.69	0.0320409
220.000	96.35	0.0320452
240.000	96.02	0.0320072
260.000	95.69	0.0320430
280.000	95.35	0.0320486
300.000	95.02	0.0320311
320.000	94.69	0.0319606
340.000	94.35	0.0319584
360.000	94.02	0.0319517
380.000	93.69	0.0319896
400.000	93.35	0.0319477
420.000	93.02	0.0318966
440.000	92.69	0.0318753
460.000	92.35	0.0318805
480.000	92.02	0.0318474
500.000	91.69	0.0318895
520.000	91.35	0.0319054
540.000	91.02	0.0318950
560.000	90.69	0.0318192
580.000	90.35	0.0317538
600.000	90.02	0.0318023
620.000	89.69	0.0317656
640.000	89.35	0.0317984
660.000	89.02	0.0317896
680.000	88.69	0.0317073
700.000	88.36	0.0317246
720.000	88.02	0.0317204
740.000	87.69	0.0316799
760.000	87.36	0.0316829
780.000	87.02	0.0316443
800.000	86.69	0.0316219
820.000	86.35	0.0316379
840.000	86.02	0.0316277
860.000	85.69	0.0316482
880.000	85.35	0.0315814
900.000	85.02	0.0315728
920.000	84.69	0.0315576
940.000	84.35	0.0315612
960.000	84.02	0.0315634
980.000	83.69	0.0315310
1000.00	83.36	0.0315370
1020.00	83.02	0.0315343
1040.00	82.69	0.0314889
1060.00	82.36	0.0314615
1080.00	82.02	0.0315029
1100.00	81.69	0.0314727
1120.00	81.36	0.0314363
1140.00	81.02	0.0314258
1160.00	80.69	0.0314036
1180.00	80.36	0.0314215
1200.00	80.02	0.0314084
1220.00	79.69	0.0314110
1240.00	79.36	0.0313959
1260.00	79.02	0.0313773
1280.00	78.69	0.0313525
1300.00	78.36	0.0313727
1320.00	78.02	0.0313361
1340.00	77.69	0.0313375
1360.00	77.36	0.0313430
1380.00	77.02	0.0312878
1400.00	76.69	0.0312577
1420.00	76.36	0.0312877
1440.00	76.02	0.0312891
1460.00	75.69	0.0312715
1480.00	75.36	0.0312772
1500.00	75.02	0.0312487
1520.00	74.69	0.0312215
1540.00	74.36	0.0312473
1560.00	74.02	0.0312394
1580.00	73.69	0.0312428
1600.00	73.36	0.0311858
1620.00	73.02	0.0311447
1640.00	72.69	0.0311570
1660.00	72.36	0.0311698
1680.00	72.02	0.0311721
1700.00	71.69	0.0311928
1720.00	71.36	0.0311463
1740.00	71.02	0.0311568
1760.00	70.69	0.0311012
1780.00	70.36	0.0311009
1800.00	70.02	0.0311280
1820.00	69.69	0.0311209
1840.00	69.36	0.0311617
1860.00	69.02	0.0310899
1880.00	68.69	0.0311054
1900.00	68.36	0.0310792
1920.00	68.02	0.0311221
1940.00	67.69	0.0310939
1960.00	67.36	0.0311182
1980.00	67.02	0.0311262
2000.00	66.69	0.0311113
2020.00	66.36	0.0310997
2040.00	66.02	0.0310863
2060.00	65.69	0.0311086
2080.00	65.36	0.0311032
2100.00	65.02	0.0311088
2120.00	64.69	0.0311412
2140.00	64.36	0.0311631
2160.00	64.02	0.0311677
2180.00	63.69	0.0312560
2200.00	63.36	0.0313687
2220.00	63.02	0.0313847
2240.00	62.71	0.0512158
2260.00	62.38	0.0587105
2280.00	62.05	0.0551084
2300.00	61.71	0.0525609
2320.00	61.38	0.0506573
2340.00	61.04	0.0491096
2360.00	60.71	0.0476435
2380.00	60.37	0.0464033
2400.00	60.04	0.0452013
2420.00	59.70	0.0441732
2440.00	59.37	0.0433063
2460.00	59.03	0.0424262
2480.00	58.70	0.0415987
2500.00	58.37	0.0408852
2520.00	58.03	0.0402116
2540.00	57.70	0.0395893
2560.00	57.36	0.0390798
2580.00	57.03	0.0385436
2600.00	56.70	0.0380603
2620.00	56.36	0.0376512
2640.00	56.03	0.0372693
2660.00	55.70	0.0368889
2680.00	55.36	0.0365683
2700.00	55.03	0.0362176
2720.00	54.70	0.0358591
2740.00	54.36	0.0356363
2760.00	54.03	0.0354003
2780.00	53.70	0.0351383
2800.00	53.36	0.0348956
2820.00	53.03	0.0346842
2840.00	52.69	0.0345077
2860.00	52.36	0.0343411
2880.00	52.03	0.0341462
2900.00	51.69	0.0340485
2920.00	51.36	0.0338971
2940.00	51.03	0.0337244
2960.00	50.69	0.0335094
2980.00	50.36	0.0334362
3000.00	50.03	0.0333083
3020.00	49.69	0.0331603
3040.00	49.36	0.0330972
3060.00	49.03	0.0329877
3080.00	48.69	0.0328501
3100.00	48.36	0.0326990
3120.00	48.03	0.0325741
3140.00	47.69	0.0325683
3160.00	47.36	0.0326187
3180.00	47.03	0.0324333
3200.00	46.75	3.57106e-3
3220.00	47.95	1.48954
3240.00	46.44	0.470865
3260.00	45.74	0.0871071
3280.00	45.37	0.0413874
3300.00	45.03	0.0361816
3320.00	44.69	0.0340989
3340.00	44.36	0.0330169
3360.00	44.03	0.0324241
3380.00	43.69	0.0320819
3400.00	43.36	0.0318243
3420.00	43.02	0.0315986
3440.00	42.69	0.0313571
3460.00	42.36	0.0311740
3480.00	42.03	0.0309788
3500.00	41.69	0.0308524
3520.00	41.36	0.0306904
3540.00	41.02	0.0305716
3560.00	40.69	0.0304075
3580.00	40.36	0.0302400
3600.00	40.02	0.0301385
3620.00	39.69	0.0300508
3640.00	39.36	0.0298861
3660.00	39.02	0.0297559
3680.00	38.69	0.0296081
3700.00	38.36	0.0295088
3720.00	38.02	0.0294130
3740.00	37.69	0.0292972
3760.00	37.36	0.0291640
3780.00	37.02	0.0290534
3800.00	36.69	0.0289819
3820.00	36.35	0.0288855
3840.00	36.02	0.0287371
3860.00	35.69	0.0286791
3880.00	35.35	0.0286350
3900.00	35.02	0.0284871
3920.00	34.69	0.0283243
3940.00	34.36	0.0283048
3960.00	34.02	0.0282403
3980.00	33.69	0.0281769
4000.00	33.36	0.0280656
4020.00	33.02	0.0280273
4040.00	32.69	0.0279547
4060.00	32.36	0.0278600
4080.00	32.02	0.0278549
4100.00	31.69	0.0277323
4120.00	31.35	0.0276460
4140.00	31.02	0.0275975
4160.00	30.69	0.0275965
4180.00	30.35	0.0274507
4200.00	30.02	0.0274349
4220.00	29.69	0.0273515
4240.00	29.35	0.0272725
4260.00	29.02	0.0272026
4280.00	28.69	0.0271594
4300.00	28.35	0.0271413
4320.00	28.02	0.0270194
4340.00	27.69	0.0269296
4360.00	27.35	0.0268848
4380.00	27.02	0.0268376
4400.00	26.69	0.0267919
4420.00	26.35	0.0267372
4440.00	26.02	0.0267092
4460.00	25.69	0.0266301
4480.00	25.36	0.0265651
4500.00	25.02	0.0265324
4520.00	24.69	0.0264563
4540.00	24.35	0.0264414
4560.00	24.02	0.0263279
4580.00	23.69	0.0263091
4600.00	23.35	0.0262500
4620.00	23.02	0.0261998
4640.00	22.69	0.0261503
4660.00	22.35	0.0260925
4680.00	22.02	0.0259976
4700.00	21.69	0.0259766
4720.00	21.35	0.0259409
4740.00	21.02	0.0258635
4760.00	20.69	0.0258073
4780.00	20.35	0.0257313
4800.00	20.02	0.0256945
4820.00	19.69	0.0256869
4840.00	19.35	0.0256039
4860.00	19.02	0.0255803
4880.00	18.69	0.0254960
4900.00	18.35	0.0254369
4920.00	18.02	0.0254432
4940.00	17.69	0.0253778
4960.00	17.35	0.0253048
4980.00	17.02	0.0252447
5000.00	16.69	0.0252093
5020.00	16.35	0.0251389
5040.00	16.02	0.0250659
5060.00	15.68	0.0250546
5080.00	15.35	0.0250160
5100.00	15.02	0.0249624
5120.00	14.69	0.0248890
5140.00	14.35	0.0248803
5160.00	14.02	0.0247997
5180.00	13.68	0.0247718
5200.00	13.35	0.0247181
5220.00	13.02	0.0247614
5240.00	12.68	0.0246625
5260.00	12.35	0.0245946
5280.00	12.02	0.0245414
5300.00	11.69	0.0245052
5320.00	11.35	0.0244330
5340.00	11.02	0.0243744
5360.00	10.69	0.0243428
5380.00	10.35	0.0243962
5400.00	10.02	0.0243264
5420.00	9.68	0.0242867
5440.00	9.35	0.0242139
5460.00	9.02	0.0241901
5480.00	8.68	0.0241087
5500.00	8.35	0.0240662
5520.00	8.02	0.0240140
5540.00	7.68	0.0239955
5560.00	7.35	0.0240019
5580.00	7.02	0.0239423
5600.00	6.68	0.0238880
5620.00	6.35	0.0238026
5640.00	6.02	0.0237853
5660.00	5.69	0.0237777
5680.00	5.35	0.0237335
5700.00	5.02	0.0236713
5720.00	4.69	0.0236472
5740.00	4.35	0.0236519
5760.00	4.02	0.0236284
5780.00	3.68	0.0235571
5800.00	3.35	0.0235600
5820.00	3.02	0.0234903
5840.00	2.68	0.0234852
5860.00	2.35	0.0234028
5880.00	2.02	0.0234080
5900.00	1.68	0.0233834
5920.00	1.35	0.0233665
5940.00	1.02	0.0233188
5960.00	0.68	0.0232935
5980.00	0.35	0.0233145
5999.90	0.02	0.0232934