Folder: StructuralDiversity/Differential scanning calorimetry/12OCB Squalane (part 3)

File: 12OCB SqA wt fraction 800.txt
Filename	12OCBSqA800
Instrument name	DSC2A-00101 (192.168.10.4)
Operator	Yuma
rundate	3/14/2021
Sample name	12OCBSqA800
proceduresegments	Data Off ; Equilibrate 150.00 °C; Isothermal 10.0 min; Equilibrate 100.00 °C; Isothermal 5.0 min; Data On ; Ramp 1.00 °C/min to 0.00 °C; Ramp 5.00 °C/min to 150.00 °C; Data Off ; Isothermal 10.0 min; Modulate Temperature 1.00 °C for 60.0 s; Equilibrate 100.00 °C; Isothermal 10.0 min; Data On ; Ramp 1.00 °C/min to 0.00 °C; Data Off ; Equilibrate 0.00 °C; Modulate Temperature 1.00 °C for 60.0 s; Isothermal 5.0 min; Data On ; Ramp 3.00 °C/min to 100.00 °C; Jump 30.00 °C
[step]
Ramp 1.00 °C/min to 0.00 °C
Time	Temperature	Heat Flow (Normalized)
s	°C	W/g
0.00000	99.85	0.0265568
20.0000	99.65	0.0241940
40.0000	99.33	0.0387565
60.0000	98.99	0.0429033
80.0000	98.66	0.0438517
100.000	98.33	0.0440666
120.000	97.99	0.0440610
140.000	97.66	0.0440732
160.000	97.33	0.0439284
180.000	96.99	0.0438533
200.000	96.66	0.0437957
220.000	96.33	0.0436652
240.000	95.99	0.0435484
260.000	95.66	0.0434027
280.000	95.33	0.0433341
300.000	94.99	0.0434472
320.000	94.66	0.0433552
340.000	94.33	0.0421958
360.000	93.99	0.0424049
380.000	93.66	0.0427800
400.000	93.33	0.0428020
420.000	92.99	0.0428737
440.000	92.66	0.0428802
460.000	92.33	0.0427702
480.000	91.99	0.0427455
500.000	91.66	0.0427010
520.000	91.33	0.0424291
540.000	90.99	0.0424448
560.000	90.66	0.0423857
580.000	90.33	0.0423093
600.000	89.99	0.0422756
620.000	89.66	0.0422517
640.000	89.33	0.0422165
660.000	88.99	0.0419814
680.000	88.66	0.0419839
700.000	88.33	0.0418912
720.000	87.99	0.0418251
740.000	87.66	0.0417660
760.000	87.33	0.0416629
780.000	86.99	0.0415739
800.000	86.66	0.0415378
820.000	86.33	0.0413883
840.000	85.99	0.0413271
860.000	85.66	0.0412558
880.000	85.33	0.0410947
900.000	84.99	0.0412025
920.000	84.66	0.0411291
940.000	84.33	0.0409844
960.000	83.99	0.0408545
980.000	83.66	0.0407800
1000.00	83.33	0.0406348
1020.00	82.99	0.0402578
1040.00	82.66	0.0403408
1060.00	82.33	0.0405050
1080.00	81.99	0.0404758
1100.00	81.66	0.0404180
1120.00	81.33	0.0404427
1140.00	80.99	0.0404199
1160.00	80.66	0.0404250
1180.00	80.33	0.0402124
1200.00	79.99	0.0402294
1220.00	79.66	0.0401955
1240.00	79.33	0.0400701
1260.00	78.99	0.0400684
1280.00	78.66	0.0400275
1300.00	78.33	0.0398852
1320.00	77.99	0.0398313
1340.00	77.66	0.0397821
1360.00	77.33	0.0396556
1380.00	76.99	0.0396739
1400.00	76.66	0.0396213
1420.00	76.33	0.0396273
1440.00	75.99	0.0395219
1460.00	75.66	0.0395683
1480.00	75.33	0.0394132
1500.00	74.99	0.0394309
1520.00	74.66	0.0393018
1540.00	74.33	0.0392220
1560.00	74.00	0.0391710
1580.00	73.66	0.0391149
1600.00	73.33	0.0390254
1620.00	72.99	0.0389989
1640.00	72.66	0.0389977
1660.00	72.33	0.0388148
1680.00	71.99	0.0387978
1700.00	71.66	0.0387769
1720.00	71.33	0.0385747
1740.00	70.99	0.0385719
1760.00	70.66	0.0384912
1780.00	70.33	0.0383330
1800.00	69.99	0.0383599
1820.00	69.66	0.0382665
1840.00	69.33	0.0382147
1860.00	68.99	0.0381971
1880.00	68.66	0.0380826
1900.00	68.33	0.0379474
1920.00	67.99	0.0379257
1940.00	67.66	0.0379850
1960.00	67.33	0.0378155
1980.00	66.99	0.0377684
2000.00	66.66	0.0377108
2020.00	66.33	0.0376748
2040.00	65.99	0.0375825
2060.00	65.66	0.0375026
2080.00	65.33	0.0374160
2100.00	64.99	0.0373590
2120.00	64.66	0.0373062
2140.00	64.33	0.0372313
2160.00	63.99	0.0372242
2180.00	63.66	0.0370913
2200.00	63.33	0.0370510
2220.00	62.99	0.0369806
2240.00	62.66	0.0369721
2260.00	62.33	0.0368230
2280.00	61.99	0.0368340
2300.00	61.66	0.0368450
2320.00	61.33	0.0367403
2340.00	60.99	0.0365662
2360.00	60.66	0.0365646
2380.00	60.33	0.0365437
2400.00	59.99	0.0364979
2420.00	59.66	0.0365566
2440.00	59.33	0.0364582
2460.00	58.99	0.0363009
2480.00	58.66	0.0362556
2500.00	58.33	0.0361715
2520.00	57.99	0.0361181
2540.00	57.66	0.0361106
2560.00	57.33	0.0360766
2580.00	56.99	0.0359746
2600.00	56.66	0.0358235
2620.00	56.33	0.0358169
2640.00	55.99	0.0357541
2660.00	55.66	0.0357977
2680.00	55.33	0.0357011
2700.00	54.99	0.0356449
2720.00	54.66	0.0356113
2740.00	54.33	0.0354841
2760.00	53.99	0.0355189
2780.00	53.66	0.0370664
2800.00	53.33	0.0397309
2820.00	52.99	0.0411542
2840.00	52.66	0.0408612
2860.00	52.33	0.0406405
2880.00	51.99	0.0404401
2900.00	51.66	0.0403320
2920.00	51.33	0.0401846
2940.00	50.99	0.0400859
2960.00	50.66	0.0399141
2980.00	50.33	0.0395831
3000.00	49.99	0.0393847
3020.00	49.66	0.0393154
3040.00	49.33	0.0390633
3060.00	48.99	0.0389416
3080.00	48.66	0.0387364
3100.00	48.33	0.0386117
3120.00	47.99	0.0383740
3140.00	47.66	0.0381969
3160.00	47.33	0.0382218
3180.00	46.99	0.0379705
3200.00	46.66	0.0378665
3220.00	46.33	0.0376051
3240.00	45.99	0.0375486
3260.00	45.66	0.0373610
3280.00	45.33	0.0373112
3300.00	44.99	0.0370706
3320.00	44.66	0.0369954
3340.00	44.33	0.0369059
3360.00	43.99	0.0368471
3380.00	43.66	0.0365489
3400.00	43.52	0.797612
3420.00	43.07	0.424165
3440.00	42.66	0.0579183
3460.00	42.33	0.0437423
3480.00	41.99	0.0402399
3500.00	41.66	0.0390835
3520.00	41.33	0.0384117
3540.00	40.99	0.0380495
3560.00	40.66	0.0376660
3580.00	40.33	0.0373694
3600.00	39.99	0.0371877
3620.00	39.66	0.0368777
3640.00	39.33	0.0365710
3660.00	38.99	0.0364408
3680.00	38.66	0.0360440
3700.00	38.32	0.0359132
3720.00	37.99	0.0356706
3740.00	37.66	0.0354571
3760.00	37.32	0.0352848
3780.00	36.99	0.0350149
3800.00	36.66	0.0348613
3820.00	36.32	0.0347073
3840.00	35.99	0.0345066
3860.00	35.66	0.0343063
3880.00	35.32	0.0342380
3900.00	34.99	0.0339677
3920.00	34.66	0.0337384
3940.00	34.32	0.0336698
3960.00	33.99	0.0334381
3980.00	33.66	0.0334021
4000.00	33.32	0.0332210
4020.00	32.99	0.0330699
4040.00	32.66	0.0329705
4060.00	32.32	0.0328016
4080.00	31.99	0.0326540
4100.00	31.66	0.0325742
4120.00	31.32	0.0324790
4140.00	30.99	0.0324485
4160.00	30.66	0.0323069
4180.00	30.32	0.0323326
4200.00	29.99	0.0320806
4220.00	29.66	0.0319820
4240.00	29.32	0.0318567
4260.00	28.99	0.0317372
4280.00	28.65	0.0316643
4300.00	28.32	0.0315503
4320.00	27.99	0.0315319
4340.00	27.66	0.0314450
4360.00	27.32	0.0313425
4380.00	26.99	0.0312641
4400.00	26.65	0.0311915
4420.00	26.32	0.0310310
4440.00	25.99	0.0309576
4460.00	25.66	0.0308284
4480.00	25.32	0.0307259
4500.00	24.99	0.0306624
4520.00	24.66	0.0307049
4540.00	24.32	0.0305816
4560.00	23.99	0.0304835
4580.00	23.65	0.0303323
4600.00	23.32	0.0301294
4620.00	22.99	0.0300849
4640.00	22.65	0.0300720
4660.00	22.32	0.0299075
4680.00	21.99	0.0297885
4700.00	21.65	0.0296372
4720.00	21.32	0.0295199
4740.00	20.99	0.0294895
4760.00	20.65	0.0294339
4780.00	20.32	0.0292204
4800.00	19.99	0.0291109
4820.00	19.66	0.0290905
4840.00	19.32	0.0290096
4860.00	18.99	0.0289431
4880.00	18.65	0.0288422
4900.00	18.32	0.0287047
4920.00	17.99	0.0284802
4940.00	17.65	0.0284774
4960.00	17.32	0.0283485
4980.00	16.99	0.0283557
5000.00	16.66	0.0280326
5020.00	16.32	0.0280300
5040.00	15.99	0.0280103
5060.00	15.65	0.0279964
5080.00	15.32	0.0277364
5100.00	14.99	0.0277667
5120.00	14.65	0.0276701
5140.00	14.32	0.0274491
5160.00	13.99	0.0274721
5180.00	13.65	0.0272767
5200.00	13.32	0.0272043
5220.00	12.99	0.0270863
5240.00	12.65	0.0270943
5260.00	12.32	0.0269646
5280.00	11.99	0.0268997
5300.00	11.65	0.0268346
5320.00	11.32	0.0266928
5340.00	10.99	0.0266314
5360.00	10.65	0.0266254
5380.00	10.32	0.0265223
5400.00	9.99	0.0264085
5420.00	9.65	0.0263268
5440.00	9.32	0.0262721
5460.00	8.99	0.0262508
5480.00	8.65	0.0259651
5500.00	8.32	0.0258957
5520.00	7.99	0.0257888
5540.00	7.65	0.0258455
5560.00	7.32	0.0256707
5580.00	6.99	0.0254865
5600.00	6.65	0.0254126
5620.00	6.32	0.0253557
5640.00	5.99	0.0252287
5660.00	5.65	0.0249986
5680.00	5.32	0.0249470
5700.00	4.99	0.0248849
5720.00	4.65	0.0248355
5740.00	4.32	0.0247286
5760.00	3.98	0.0245624
5780.00	3.65	0.0245969
5800.00	3.32	0.0245566
5820.00	2.99	0.0244519
5840.00	2.65	0.0245225
5860.00	2.32	0.0244536
5880.00	1.98	0.0244912
5900.00	1.65	0.0243703
5920.00	1.32	0.0243913
5940.00	0.98	0.0242025
5960.00	0.65	0.0241586
5980.00	0.32	0.0242275
5999.90	-0.01	0.0242883

File: 12OCB SqA wt fraction 952.txt
Filename	12OCBSqA952
Instrument name	DSC2A-00101 (192.168.10.4)
Operator	Yuma
rundate	3/15/2021
Sample name	12OCBSqA952
proceduresegments	Data Off ; Equilibrate 150.00 °C; Isothermal 10.0 min; Equilibrate 100.00 °C; Isothermal 5.0 min; Data On ; Ramp 1.00 °C/min to 0.00 °C; Ramp 5.00 °C/min to 150.00 °C; Data Off ; Isothermal 10.0 min; Modulate Temperature 1.00 °C for 60.0 s; Equilibrate 100.00 °C; Isothermal 10.0 min; Data On ; Ramp 1.00 °C/min to 0.00 °C; Data Off ; Equilibrate 0.00 °C; Modulate Temperature 1.00 °C for 60.0 s; Isothermal 5.0 min; Data On ; Ramp 3.00 °C/min to 100.00 °C; Jump 30.00 °C
[step]
Ramp 1.00 °C/min to 0.00 °C
Time	Temperature	Heat Flow (Normalized)
s	°C	W/g
0.00000	99.85	1.48321e-3
20.0000	99.67	0.0245740
40.0000	99.35	0.0346438
60.0000	99.01	0.0365668
80.0000	98.68	0.0372451
100.000	98.35	0.0374302
120.000	98.02	0.0374929
140.000	97.68	0.0375054
160.000	97.35	0.0375110
180.000	97.02	0.0374531
200.000	96.68	0.0374028
220.000	96.35	0.0374587
240.000	96.02	0.0374801
260.000	95.68	0.0374480
280.000	95.35	0.0374139
300.000	95.02	0.0374366
320.000	94.68	0.0374625
340.000	94.35	0.0375009
360.000	94.02	0.0374763
380.000	93.68	0.0374296
400.000	93.35	0.0374394
420.000	93.02	0.0374643
440.000	92.68	0.0374600
460.000	92.35	0.0374617
480.000	92.02	0.0374530
500.000	91.68	0.0373910
520.000	91.35	0.0373783
540.000	91.02	0.0374194
560.000	90.68	0.0374004
580.000	90.35	0.0373851
600.000	90.02	0.0373812
620.000	89.68	0.0374025
640.000	89.35	0.0374483
660.000	89.02	0.0374640
680.000	88.68	0.0374052
700.000	88.35	0.0374392
720.000	88.01	0.0374198
740.000	87.68	0.0373679
760.000	87.35	0.0373911
780.000	87.02	0.0373822
800.000	86.68	0.0374101
820.000	86.35	0.0373906
840.000	86.02	0.0374055
860.000	85.68	0.0373920
880.000	85.35	0.0373881
900.000	85.02	0.0373348
920.000	84.68	0.0373721
940.000	84.35	0.0373908
960.000	84.02	0.0373611
980.000	83.68	0.0373451
1000.00	83.35	0.0373280
1020.00	83.02	0.0374028
1040.00	82.68	0.0373904
1060.00	82.35	0.0373571
1080.00	82.02	0.0374110
1100.00	81.68	0.0373877
1120.00	81.35	0.0373556
1140.00	81.02	0.0373522
1160.00	80.68	0.0373525
1180.00	80.35	0.0373525
1200.00	80.02	0.0374002
1220.00	79.69	0.0373661
1240.00	79.35	0.0373442
1260.00	79.02	0.0373706
1280.00	78.68	0.0373848
1300.00	78.35	0.0373827
1320.00	78.02	0.0373520
1340.00	77.68	0.0373140
1360.00	77.35	0.0373167
1380.00	77.02	0.0373420
1400.00	76.68	0.0373348
1420.00	76.35	0.0373358
1440.00	76.02	0.0373350
1460.00	75.68	0.0373323
1480.00	75.35	0.0373302
1500.00	75.02	0.0373443
1520.00	74.68	0.0372181
1540.00	74.35	0.0374041
1560.00	74.02	0.0373924
1580.00	73.68	0.0374152
1600.00	73.35	0.0373537
1620.00	73.02	0.0373575
1640.00	72.68	0.0373297
1660.00	72.35	0.0373090
1680.00	72.02	0.0373404
1700.00	71.68	0.0373171
1720.00	71.35	0.0373225
1740.00	71.02	0.0373361
1760.00	70.68	0.0372700
1780.00	70.35	0.0372686
1800.00	70.02	0.0373025
1820.00	69.68	0.0372650
1840.00	69.35	0.0373397
1860.00	69.02	0.0372761
1880.00	68.68	0.0372918
1900.00	68.35	0.0372733
1920.00	68.02	0.0372692
1940.00	67.68	0.0372706
1960.00	67.35	0.0372560
1980.00	67.02	0.0372349
2000.00	66.68	0.0372574
2020.00	66.35	0.0372438
2040.00	66.02	0.0372712
2060.00	65.68	0.0372221
2080.00	65.35	0.0372068
2100.00	65.02	0.0371826
2120.00	64.68	0.0371932
2140.00	64.35	0.0371843
2160.00	64.02	0.0371760
2180.00	63.68	0.0371925
2200.00	63.35	0.0372126
2220.00	63.02	0.0372184
2240.00	62.68	0.0372312
2260.00	62.35	0.0371474
2280.00	62.02	0.0371571
2300.00	61.68	0.0371837
2320.00	61.35	0.0371291
2340.00	61.02	0.0371256
2360.00	60.68	0.0371890
2380.00	60.35	0.0371851
2400.00	60.02	0.0371550
2420.00	59.69	0.0370498
2440.00	59.35	0.0370849
2460.00	59.02	0.0371172
2480.00	58.68	0.0371074
2500.00	58.35	0.0371155
2520.00	58.02	0.0371200
2540.00	57.68	0.0371130
2560.00	57.35	0.0370732
2580.00	57.02	0.0371001
2600.00	56.68	0.0370889
2620.00	56.35	0.0370791
2640.00	56.02	0.0370728
2660.00	55.68	0.0371348
2680.00	55.35	0.0370805
2700.00	55.02	0.0370800
2720.00	54.68	0.0370789
2740.00	54.35	0.0370274
2760.00	54.02	0.0369949
2780.00	53.68	0.0370166
2800.00	53.35	0.0370340
2820.00	53.02	0.0370211
2840.00	52.68	0.0369742
2860.00	52.35	0.0369640
2880.00	52.02	0.0369591
2900.00	51.68	0.0369820
2920.00	51.35	0.0369951
2940.00	51.02	0.0369824
2960.00	50.68	0.0369156
2980.00	50.35	0.0369327
3000.00	50.02	0.0369222
3020.00	49.68	0.0369536
3040.00	49.35	0.0369252
3060.00	49.02	0.0369346
3080.00	48.68	0.0369274
3100.00	48.35	0.0369222
3120.00	48.02	0.0368556
3140.00	47.68	0.0369177
3160.00	47.35	0.0370014
3180.00	47.02	0.0368264
3200.00	46.68	0.0368472
3220.00	46.35	0.0367944
3240.00	46.02	0.0368865
3260.00	45.68	0.0368866
3280.00	45.35	0.0368498
3300.00	45.02	0.0429033
3320.00	44.69	0.0450360
3340.00	44.39	0.0786498
3360.00	44.04	0.0631128
3380.00	43.70	0.0552048
3400.00	43.35	0.0435013
3420.00	43.02	0.0408705
3440.00	42.68	0.0396402
3460.00	42.35	0.0392465
3480.00	42.02	0.0389417
3500.00	41.69	0.0388040
3520.00	41.35	0.0387031
3540.00	41.02	0.0386693
3560.00	40.69	0.0385879
3580.00	40.35	0.0384804
3600.00	40.02	0.0383784
3620.00	39.69	0.0383150
3640.00	39.35	0.0382384
3660.00	39.02	0.0381658
3680.00	38.69	0.0381094
3700.00	38.35	0.0380589
3720.00	38.02	0.0379799
3740.00	37.68	0.0379352
3760.00	37.35	0.0378858
3780.00	37.02	0.0379079
3800.00	36.69	0.0415931
3820.00	36.36	0.0482236
3840.00	36.04	0.0527436
3860.00	35.71	0.0595408
3880.00	35.38	0.0709701
3900.00	35.03	0.0569652
3920.00	34.69	0.0469234
3940.00	34.35	0.0432338
3960.00	34.02	0.0408171
3980.00	33.69	0.0398351
4000.00	33.35	0.0393432
4020.00	33.02	0.0391463
4040.00	32.69	0.0390138
4060.00	32.35	0.0388915
4080.00	32.02	0.0387834
4100.00	31.68	0.0386326
4120.00	31.35	0.0385033
4140.00	31.02	0.0384815
4160.00	30.68	0.0383815
4180.00	30.35	0.0383188
4200.00	30.02	0.0382072
4220.00	29.68	0.0381636
4240.00	29.35	0.0381369
4260.00	29.02	0.0380142
4280.00	28.68	0.0380038
4300.00	28.35	0.0379331
4320.00	28.02	0.0378532
4340.00	27.68	0.0377930
4360.00	27.35	0.0377629
4380.00	27.02	0.0376888
4400.00	26.68	0.0376353
4420.00	26.35	0.0375642
4440.00	26.02	0.0375209
4460.00	25.68	0.0374679
4480.00	25.35	0.0375966
4500.00	25.02	0.0374986
4520.00	24.68	0.0374418
4540.00	24.35	0.0372715
4560.00	24.02	0.0371548
4580.00	23.68	0.0371567
4600.00	23.35	0.0371146
4620.00	23.02	0.0371036
4640.00	22.68	0.0370039
4660.00	22.35	0.0369692
4680.00	22.02	0.0369610
4700.00	21.68	0.0368762
4720.00	21.35	0.0368263
4740.00	21.02	0.0367913
4760.00	20.68	0.0367579
4780.00	20.35	0.0366974
4800.00	20.02	0.0366460
4820.00	19.68	0.0366544
4840.00	19.35	0.0366587
4860.00	19.02	0.0365983
4880.00	18.68	0.0365854
4900.00	18.35	0.0364833
4920.00	18.01	0.0364367
4940.00	17.68	0.0365917
4960.00	17.35	0.0364966
4980.00	17.02	0.0363856
5000.00	16.68	0.0363653
5020.00	16.35	0.0363521
5040.00	16.01	0.0362388
5060.00	15.68	0.0362133
5080.00	15.35	0.0361554
5100.00	15.01	0.0361553
5120.00	14.68	0.0360534
5140.00	14.35	0.0360295
5160.00	14.01	0.0360353
5180.00	13.68	0.0359832
5200.00	13.35	0.0359388
5220.00	13.01	0.0359027
5240.00	12.68	0.0359242
5260.00	12.35	0.0359165
5280.00	12.01	0.0358671
5300.00	11.68	0.0358352
5320.00	11.35	0.0357862
5340.00	11.01	0.0357893
5360.00	10.68	0.0357292
5380.00	10.35	0.0356820
5400.00	10.01	0.0356756
5420.00	9.68	0.0356323
5440.00	9.35	0.0355977
5460.00	9.01	0.0355835
5480.00	8.68	0.0355134
5500.00	8.35	0.0355146
5520.00	8.01	0.0355190
5540.00	7.68	0.0354718
5560.00	7.35	0.0354643
5580.00	7.01	0.0353186
5600.00	6.68	0.0353151
5620.00	6.35	0.0353704
5640.00	6.01	0.0353689
5660.00	5.68	0.0353203
5680.00	5.35	0.0351925
5700.00	5.01	0.0352159
5720.00	4.68	0.0352014
5740.00	4.35	0.0352032
5760.00	4.01	0.0351937
5780.00	3.68	0.0350988
5800.00	3.35	0.0351053
5820.00	3.01	0.0350828
5840.00	2.68	0.0350693
5860.00	2.35	0.0350733
5880.00	2.01	0.0351000
5900.00	1.68	0.0350533
5920.00	1.35	0.0350705
5940.00	1.01	0.0350279
5960.00	0.68	0.0350063
5980.00	0.35	0.0352731
5999.90	0.01	0.0351100