Folder: StructuralDiversity/Differential scanning calorimetry/12OCB Squalene (part 2)

File: 12OCB SqE wt fraction 211.txt
Filename	Sq12OCB211T150
Instrument name	DSC2A-00101 (192.168.10.4)
Operator	Yuma
rundate	2/7/2021
Sample name	Sq12OCB211T150
proceduresegments	Jump 100.00 °C; Isothermal 10.0 min; Jump 0.00 °C; Isothermal 5.0 min; Mark End of Cycle ; Ramp 5.00 °C/min to 100.00 °C; Mark End of Cycle ; Ramp 5.00 °C/min to 0.00 °C; Mark End of Cycle ; Ramp 5.00 °C/min to 100.00 °C; Mark End of Cycle ; Ramp 1.00 °C/min to 0.00 °C; Mark End of Cycle ; Ramp 5.00 °C/min to 100.00 °C; Mark End of Cycle ; Ramp 10.00 °C/min to 0.00 °C; Mark End of Cycle ; Ramp 10.00 °C/min to 100.00 °C; Mark End of Cycle ; Jump 0.00 °C; Mark End of Cycle
[step]
Ramp 1.00 °C/min to 0.00 °C
Time	Temperature	Heat Flow (Normalized)
s	°C	W/g
4500.30	99.00	-0.162155
4520.30	99.51	-0.0104639
4540.30	99.21	0.0301923
4560.30	98.88	0.0334706
4580.30	98.54	0.0342948
4600.30	98.21	0.0343970
4620.30	97.88	0.0343514
4640.30	97.55	0.0343292
4660.30	97.22	0.0341729
4680.30	96.88	0.0341625
4700.30	96.55	0.0340555
4720.30	96.21	0.0339091
4740.30	95.88	0.0338333
4760.30	95.55	0.0337717
4780.30	95.21	0.0336863
4800.30	94.88	0.0335758
4820.30	94.55	0.0335117
4840.30	94.22	0.0334501
4860.30	93.88	0.0333776
4880.30	93.55	0.0333598
4900.30	93.21	0.0332817
4920.30	92.88	0.0332000
4940.30	92.55	0.0332103
4960.30	92.21	0.0331786
4980.30	91.88	0.0331237
5000.30	91.55	0.0331422
5020.30	91.22	0.0330464
5040.30	90.88	0.0330040
5060.30	90.55	0.0329888
5080.30	90.22	0.0329739
5100.30	89.88	0.0329246
5120.30	89.55	0.0328700
5140.30	89.22	0.0328514
5160.30	88.88	0.0328131
5180.30	88.55	0.0328249
5200.30	88.22	0.0327567
5220.30	87.88	0.0327521
5240.30	87.55	0.0327057
5260.30	87.22	0.0327216
5280.30	86.88	0.0327148
5300.30	86.55	0.0326348
5320.30	86.21	0.0326293
5340.30	85.88	0.0326528
5360.30	85.55	0.0326217
5380.30	85.22	0.0326205
5400.30	84.88	0.0326078
5420.30	84.55	0.0325505
5440.30	84.22	0.0325789
5460.30	83.88	0.0325613
5480.30	83.55	0.0325767
5500.30	83.22	0.0325894
5520.30	82.88	0.0325937
5540.30	82.55	0.0325991
5560.30	82.22	0.0326158
5580.30	81.88	0.0326083
5600.30	81.55	0.0325283
5620.30	81.22	0.0325755
5640.30	80.88	0.0325500
5660.30	80.55	0.0326420
5680.30	80.22	0.0326505
5700.30	79.88	0.0326185
5720.30	79.55	0.0326918
5740.30	79.22	0.0326848
5760.30	78.88	0.0326458
5780.30	78.55	0.0326703
5800.30	78.22	0.0327302
5820.30	77.88	0.0327432
5840.30	77.55	0.0328096
5860.30	77.22	0.0328031
5880.30	76.88	0.0328716
5900.30	76.55	0.0328711
5920.30	76.22	0.0329139
5940.30	75.88	0.0329168
5960.30	75.55	0.0329519
5980.30	75.22	0.0330236
6000.30	74.88	0.0330523
6020.30	74.55	0.0331353
6040.30	74.22	0.0333768
6060.30	73.88	0.0341205
6080.30	73.55	0.0357086
6100.30	73.22	0.0414403
6120.30	72.89	0.0518385
6140.30	72.56	0.0574189
6160.30	72.23	0.0549983
6180.30	71.89	0.0502742
6200.30	71.56	0.0501964
6220.30	71.22	0.0493755
6240.30	70.89	0.0485983
6260.30	70.56	0.0480900
6280.30	70.22	0.0478673
6300.30	69.89	0.0469642
6320.30	69.56	0.0460296
6340.30	69.22	0.0455296
6360.30	68.89	0.0448737
6380.30	68.56	0.0443403
6400.30	68.22	0.0438482
6420.30	67.89	0.0433195
6440.30	67.55	0.0427939
6460.30	67.22	0.0425510
6480.30	66.89	0.0419610
6500.30	66.55	0.0416266
6520.30	66.22	0.0412026
6540.30	65.89	0.0408004
6560.30	65.55	0.0404240
6580.30	65.22	0.0401415
6600.30	64.89	0.0397645
6620.30	64.55	0.0393648
6640.30	64.22	0.0392667
6660.30	63.89	0.0390019
6680.30	63.55	0.0386318
6700.30	63.22	0.0384229
6720.30	62.89	0.0381658
6740.30	62.55	0.0377754
6760.30	62.22	0.0376124
6780.30	61.89	0.0374300
6800.30	61.55	0.0371921
6820.30	61.22	0.0369580
6840.30	60.89	0.0368021
6860.30	60.55	0.0366943
6880.30	60.22	0.0365523
6900.30	59.88	0.0363467
6920.30	59.55	0.0360578
6940.30	59.22	0.0359061
6960.30	58.88	0.0357714
6980.30	58.55	0.0357071
7000.30	58.22	0.0355036
7020.30	57.88	0.0353942
7040.30	57.55	0.0352608
7060.30	57.22	0.0351136
7080.30	56.88	0.0349986
7100.30	56.55	0.0348745
7120.30	56.22	0.0347677
7140.30	55.88	0.0346206
7160.30	55.55	0.0345453
7180.30	55.22	0.0343950
7200.30	54.88	0.0342945
7220.30	54.55	0.0341759
7240.30	54.22	0.0340386
7260.30	53.88	0.0339092
7280.30	53.55	0.0337731
7300.30	53.22	0.0336684
7320.30	52.88	0.0336069
7340.30	52.55	0.0335452
7360.30	52.22	0.0334934
7380.30	51.88	0.0333746
7400.30	51.55	0.0333438
7420.30	51.22	0.0332265
7440.30	50.88	0.0331685
7460.30	50.55	0.0330681
7480.30	50.22	0.0329651
7500.30	49.88	0.0329225
7520.30	49.55	0.0328359
7540.30	49.22	0.0327365
7560.30	49.04	-0.0110519
7580.30	49.92	3.62375
7600.30	48.27	0.195277
7620.30	47.89	0.0475845
7640.30	47.55	0.0396699
7660.30	47.22	0.0362958
7680.30	46.88	0.0344053
7700.30	46.55	0.0333268
7720.30	46.22	0.0326902
7740.30	45.88	0.0321879
7760.30	45.55	0.0316924
7780.30	45.22	0.0313512
7800.30	44.88	0.0310084
7820.30	44.55	0.0307109
7840.30	44.22	0.0304413
7860.30	43.88	0.0301801
7880.30	43.55	0.0298904
7900.30	43.22	0.0296889
7920.30	42.88	0.0294616
7940.30	42.55	0.0292894
7960.30	42.21	0.0291038
7980.30	41.88	0.0289142
8000.30	41.55	0.0287052
8020.30	41.21	0.0285649
8040.30	40.88	0.0283766
8060.30	40.55	0.0282073
8080.30	40.21	0.0280455
8100.30	39.88	0.0278916
8120.30	39.55	0.0277100
8140.30	39.21	0.0276690
8160.30	38.88	0.0274996
8180.30	38.55	0.0273866
8200.30	38.21	0.0274957
8220.30	37.88	0.0272581
8240.30	37.55	0.0271522
8260.30	37.21	0.0270389
8280.30	36.88	0.0268494
8300.30	36.55	0.0268525
8320.30	36.21	0.0267170
8340.30	35.88	0.0265858
8360.30	35.55	0.0264163
8380.30	35.21	0.0262941
8400.30	34.88	0.0262104
8420.30	34.55	0.0262044
8440.30	34.21	0.0260895
8460.30	33.88	0.0261191
8480.30	33.55	0.0260027
8500.30	33.21	0.0259205
8520.30	32.88	0.0258249
8540.30	32.55	0.0257822
8560.30	32.21	0.0256406
8580.30	31.88	0.0255250
8600.30	31.55	0.0254358
8620.30	31.21	0.0254439
8640.30	30.88	0.0253870
8660.30	30.54	0.0253079
8680.30	30.21	0.0251812
8700.30	29.88	0.0251516
8720.30	29.55	0.0251399
8740.30	29.21	0.0251179
8760.30	28.88	0.0249929
8780.30	28.55	0.0249214
8800.30	28.21	0.0247733
8820.30	27.88	0.0248141
8840.30	27.55	0.0248790
8860.30	27.21	0.0247935
8880.30	26.88	0.0247329
8900.30	26.55	0.0247107
8920.30	26.21	0.0246103
8940.30	25.88	0.0245841
8960.30	25.55	0.0245911
8980.30	25.21	0.0247794
9000.30	24.88	0.0246211
9020.30	24.55	0.0245937
9040.30	24.21	0.0244344
9060.30	23.88	0.0243422
9080.30	23.55	0.0242511
9100.30	23.21	0.0241758
9120.30	22.88	0.0241306
9140.30	22.55	0.0241456
9160.30	22.21	0.0241912
9180.30	21.88	0.0240566
9200.30	21.54	0.0240840
9220.30	21.21	0.0239844
9240.30	20.88	0.0237962
9260.30	20.55	0.0238781
9280.30	20.21	0.0237193
9300.30	19.88	0.0235966
9320.30	19.54	0.0235690
9340.30	19.21	0.0234349
9360.30	18.88	0.0234133
9380.30	18.54	0.0235347
9400.30	18.21	0.0235697
9420.30	17.88	0.0236404
9440.30	17.54	0.0236459
9460.30	17.21	0.0235055
9480.30	16.88	0.0234962
9500.30	16.54	0.0234326
9520.30	16.21	0.0233336
9540.30	15.88	0.0232285
9560.30	15.54	0.0230930
9580.30	15.21	0.0230298
9600.30	14.88	0.0230602
9620.30	14.55	0.0230393
9640.30	14.21	0.0230815
9660.30	13.88	0.0229572
9680.30	13.54	0.0229077
9700.30	13.21	0.0227385
9720.30	12.88	0.0224522
9740.30	12.54	0.0223702
9760.30	12.21	0.0223400
9780.30	11.88	0.0223174
9800.30	11.54	0.0222488
9820.30	11.21	0.0221674
9840.30	10.88	0.0221295
9860.30	10.54	0.0220295
9880.30	10.21	0.0223025
9900.30	9.88	0.0221032
9920.30	9.54	0.0218715
9940.30	9.21	0.0218174
9960.30	8.88	0.0217375
9980.30	8.54	0.0216898
10000.3	8.21	0.0215852
10020.3	7.88	0.0215336
10040.3	7.54	0.0215108
10060.3	7.21	0.0214602
10080.3	6.88	0.0213864
10100.3	6.54	0.0212824
10120.3	6.21	0.0212680
10140.3	5.88	0.0212109
10160.3	5.54	0.0212137
10180.3	5.21	0.0211181
10200.3	4.87	0.0214446
10220.3	4.54	0.0211216
10240.3	4.21	0.0210765
10260.3	3.88	0.0210155
10280.3	3.54	0.0209572
10300.3	3.21	0.0209377
10320.3	2.88	0.0208570
10340.3	2.54	0.0208105
10360.3	2.21	0.0208372
10380.3	1.88	0.0208456
10400.3	1.54	0.0208298
10420.3	1.21	0.0208327
10440.3	0.88	0.0207386
10460.3	0.54	0.0207175
10480.3	0.21	0.0207343
10500.2	-0.12	0.0207563

File: 12OCB SqE wt fraction 320.txt
Filename	Sq12OCB320
Instrument name	DSC2A-00101 (192.168.10.4)
Operator	Yuma
rundate	2/3/2021
Sample name	Sq12OCB320
proceduresegments	Jump 100.00 °C; Isothermal 10.0 min; Jump 0.00 °C; Isothermal 5.0 min; Mark End of Cycle ; Ramp 5.00 °C/min to 100.00 °C; Mark End of Cycle ; Ramp 5.00 °C/min to 0.00 °C; Mark End of Cycle ; Ramp 5.00 °C/min to 100.00 °C; Mark End of Cycle ; Ramp 1.00 °C/min to 0.00 °C; Mark End of Cycle ; Ramp 5.00 °C/min to 100.00 °C; Mark End of Cycle ; Ramp 10.00 °C/min to 0.00 °C; Mark End of Cycle ; Ramp 10.00 °C/min to 100.00 °C; Mark End of Cycle ; Jump 0.00 °C; Mark End of Cycle
[step]
Ramp 1.00 °C/min to 0.00 °C
Time	Temperature	Heat Flow (Normalized)
s	°C	W/g
4500.30	98.96	-0.148333
4520.30	99.44	-0.0246020
4540.30	99.13	0.0142780
4560.30	98.80	0.0181016
4580.30	98.47	0.0189943
4600.30	98.14	0.0190840
4620.30	97.80	0.0190567
4640.30	97.47	0.0190602
4660.30	97.14	0.0189891
4680.30	96.81	0.0189401
4700.30	96.47	0.0189165
4720.30	96.14	0.0188557
4740.30	95.80	0.0188270
4760.30	95.47	0.0187914
4780.30	95.14	0.0188411
4800.30	94.80	0.0189124
4820.30	94.47	0.0189692
4840.30	94.14	0.0189851
4860.30	93.81	0.0190278
4880.30	93.47	0.0190900
4900.30	93.14	0.0191665
4920.30	92.81	0.0191882
4940.30	92.47	0.0192194
4960.30	92.14	0.0192951
4980.30	91.81	0.0193141
5000.30	91.47	0.0193114
5020.30	91.14	0.0193415
5040.30	90.81	0.0192952
5060.30	90.47	0.0193289
5080.30	90.14	0.0193394
5100.30	89.81	0.0193677
5120.30	89.47	0.0194628
5140.30	89.14	0.0193974
5160.30	88.81	0.0194183
5180.30	88.47	0.0194353
5200.30	88.14	0.0194783
5220.30	87.81	0.0195197
5240.30	87.47	0.0195824
5260.30	87.14	0.0196350
5280.30	86.81	0.0196632
5300.30	86.48	0.0196217
5320.30	86.14	0.0196432
5340.30	85.81	0.0196844
5360.30	85.47	0.0197009
5380.30	85.14	0.0197186
5400.30	84.81	0.0197339
5420.30	84.47	0.0198033
5440.30	84.14	0.0197723
5460.30	83.81	0.0197385
5480.30	83.48	0.0198288
5500.30	83.14	0.0198351
5520.30	82.81	0.0199070
5540.30	82.48	0.0199187
5560.30	82.14	0.0199688
5580.30	81.81	0.0200245
5600.30	81.48	0.0200288
5620.30	81.14	0.0200631
5640.30	80.81	0.0201221
5660.30	80.47	0.0200741
5680.30	80.14	0.0201621
5700.30	79.81	0.0201939
5720.30	79.48	0.0202636
5740.30	79.14	0.0202491
5760.30	78.81	0.0203084
5780.30	78.48	0.0203170
5800.30	78.14	0.0203478
5820.30	77.81	0.0204839
5840.30	77.48	0.0206055
5860.30	77.14	0.0206726
5880.30	76.81	0.0207160
5900.30	76.48	0.0207079
5920.30	76.14	0.0208168
5940.30	75.81	0.0209382
5960.30	75.48	0.0209682
5980.30	75.14	0.0209972
6000.30	74.81	0.0210826
6020.30	74.48	0.0211480
6040.30	74.14	0.0212358
6060.30	73.81	0.0212971
6080.30	73.48	0.0213622
6100.30	73.14	0.0215057
6120.30	72.81	0.0215214
6140.30	72.48	0.0216587
6160.30	72.14	0.0216952
6180.30	71.81	0.0218236
6200.30	71.48	0.0218939
6220.30	71.14	0.0219713
6240.30	70.81	0.0219844
6260.30	70.48	0.0220709
6280.30	70.14	0.0220948
6300.30	69.81	0.0220985
6320.30	69.48	0.0221533
6340.30	69.14	0.0221462
6360.30	68.81	0.0221934
6380.30	68.48	0.0222005
6400.30	68.14	0.0223221
6420.30	67.81	0.0223238
6440.30	67.48	0.0224945
6460.30	67.14	0.0233676
6480.30	66.81	0.0278758
6500.30	66.48	0.0345098
6520.30	66.15	0.0376265
6540.30	65.81	0.0372079
6560.30	65.48	0.0366789
6580.30	65.15	0.0355074
6600.30	64.81	0.0351598
6620.30	64.48	0.0345114
6640.30	64.15	0.0341787
6660.30	63.81	0.0338372
6680.30	63.48	0.0332816
6700.30	63.15	0.0330733
6720.30	62.81	0.0327931
6740.30	62.48	0.0322472
6760.30	62.15	0.0316796
6780.30	61.81	0.0316587
6800.30	61.48	0.0310069
6820.30	61.15	0.0310026
6840.30	60.81	0.0304891
6860.30	60.48	0.0303161
6880.30	60.15	0.0298666
6900.30	59.81	0.0296269
6920.30	59.48	0.0293075
6940.30	59.15	0.0289748
6960.30	58.81	0.0289137
6980.30	58.48	0.0286906
7000.30	58.15	0.0284075
7020.30	57.81	0.0282778
7040.30	57.48	0.0280619
7060.30	57.15	0.0279952
7080.30	56.81	0.0276748
7100.30	56.48	0.0274343
7120.30	56.14	0.0271386
7140.30	55.81	0.0269601
7160.30	55.48	0.0268356
7180.30	55.14	0.0266170
7200.30	54.81	0.0264151
7220.30	54.48	0.0261660
7240.30	54.15	0.0263259
7260.30	53.81	0.0262105
7280.30	53.48	0.0257113
7300.30	53.15	0.0254801
7320.30	52.81	0.0253805
7340.30	52.48	0.0251927
7360.30	52.14	0.0249787
7380.30	51.81	0.0247650
7400.30	51.48	0.0246823
7420.30	51.14	0.0245781
7440.30	50.81	0.0244051
7460.30	50.56	0.0811486
7480.30	50.71	1.83416
7500.30	50.15	1.33103
7520.30	49.51	0.150441
7540.30	49.15	0.0422473
7560.30	48.81	0.0361793
7580.30	48.48	0.0323287
7600.30	48.15	0.0303004
7620.30	47.81	0.0293766
7640.30	47.48	0.0286910
7660.30	47.14	0.0276277
7680.30	46.81	0.0264923
7700.30	46.48	0.0257310
7720.30	46.14	0.0253582
7740.30	45.81	0.0251208
7760.30	45.48	0.0250619
7780.30	45.14	0.0247926
7800.30	44.81	0.0241048
7820.30	44.48	0.0234902
7840.30	44.14	0.0228043
7860.30	43.81	0.0222992
7880.30	43.48	0.0218744
7900.30	43.14	0.0216668
7920.30	42.81	0.0214952
7940.30	42.48	0.0211450
7960.30	42.14	0.0208722
7980.30	41.81	0.0205919
8000.30	41.48	0.0202829
8020.30	41.14	0.0201167
8040.30	40.81	0.0197483
8060.30	40.48	0.0195068
8080.30	40.14	0.0193158
8100.30	39.81	0.0191299
8120.30	39.47	0.0189746
8140.30	39.14	0.0186623
8160.30	38.81	0.0184359
8180.30	38.48	0.0182133
8200.30	38.14	0.0180440
8220.30	37.81	0.0178593
8240.30	37.48	0.0176960
8260.30	37.14	0.0175318
8280.30	36.81	0.0173524
8300.30	36.48	0.0172181
8320.30	36.14	0.0171243
8340.30	35.81	0.0169237
8360.30	35.47	0.0167659
8380.30	35.14	0.0167085
8400.30	34.81	0.0166126
8420.30	34.48	0.0164618
8440.30	34.14	0.0163500
8460.30	33.81	0.0162253
8480.30	33.48	0.0160916
8500.30	33.14	0.0159713
8520.30	32.81	0.0158955
8540.30	32.47	0.0157919
8560.30	32.14	0.0156597
8580.30	31.81	0.0155669
8600.30	31.47	0.0154213
8620.30	31.14	0.0153438
8640.30	30.81	0.0152784
8660.30	30.47	0.0152190
8680.30	30.14	0.0150740
8700.30	29.81	0.0149722
8720.30	29.47	0.0148885
8740.30	29.14	0.0147501
8760.30	28.81	0.0147253
8780.30	28.47	0.0146245
8800.30	28.14	0.0144950
8820.30	27.81	0.0144180
8840.30	27.47	0.0143616
8860.30	27.14	0.0142258
8880.30	26.81	0.0141630
8900.30	26.47	0.0140881
8920.30	26.14	0.0139309
8940.30	25.81	0.0138311
8960.30	25.47	0.0137599
8980.30	25.14	0.0137027
9000.30	24.81	0.0136500
9020.30	24.47	0.0135698
9040.30	24.14	0.0134216
9060.30	23.81	0.0133166
9080.30	23.47	0.0132218
9100.30	23.14	0.0131729
9120.30	22.81	0.0131147
9140.30	22.47	0.0129749
9160.30	22.14	0.0129180
9180.30	21.81	0.0128639
9200.30	21.47	0.0128144
9220.30	21.14	0.0127481
9240.30	20.81	0.0126509
9260.30	20.47	0.0125966
9280.30	20.14	0.0125185
9300.30	19.81	0.0124204
9320.30	19.47	0.0123806
9340.30	19.14	0.0123183
9360.30	18.81	0.0122177
9380.30	18.47	0.0121654
9400.30	18.14	0.0121056
9420.30	17.81	0.0120208
9440.30	17.47	0.0119364
9460.30	17.14	0.0118453
9480.30	16.81	0.0117783
9500.30	16.47	0.0116820
9520.30	16.14	0.0116131
9540.30	15.80	0.0115249
9560.30	15.47	0.0114853
9580.30	15.14	0.0114193
9600.30	14.81	0.0113650
9620.30	14.47	0.0112830
9640.30	14.14	0.0112147
9660.30	13.81	0.0111417
9680.30	13.47	0.0111795
9700.30	13.14	0.0110393
9720.30	12.80	0.0109670
9740.30	12.47	0.0109078
9760.30	12.14	0.0109080
9780.30	11.80	0.0108158
9800.30	11.47	0.0107967
9820.30	11.14	0.0106550
9840.30	10.80	0.0106723
9860.30	10.47	0.0105447
9880.30	10.14	0.0104500
9900.30	9.80	0.0103780
9920.30	9.47	0.0103215
9940.30	9.14	0.0102803
9960.30	8.81	0.0101977
9980.30	8.47	0.0101692
10000.3	8.14	0.0100999
10020.3	7.80	0.0100953
10040.3	7.47	0.0100551
10060.3	7.14	9.92143e-3
10080.3	6.80	9.83237e-3
10100.3	6.47	9.78449e-3
10120.3	6.14	9.71477e-3
10140.3	5.80	9.63077e-3
10160.3	5.47	9.74166e-3
10180.3	5.14	9.68089e-3
10200.3	4.80	9.55943e-3
10220.3	4.47	9.42465e-3
10240.3	4.14	9.39848e-3
10260.3	3.80	9.38466e-3
10280.3	3.47	9.33988e-3
10300.3	3.14	9.30457e-3
10320.3	2.80	9.28371e-3
10340.3	2.47	9.27279e-3
10360.3	2.14	9.15457e-3
10380.3	1.80	9.13069e-3
10400.3	1.47	9.16994e-3
10420.3	1.14	9.07769e-3
10440.3	0.80	9.03539e-3
10460.3	0.47	9.06831e-3
10480.3	0.14	9.01117e-3
10500.2	-0.19	9.01418e-3

File: 12OCB SqE wt fraction 458.txt
Filename	Sq12OCB458
Instrument name	DSC2A-00101 (192.168.10.4)
Operator	Yuma
rundate	2/3/2021
Sample name	Sq12OCB458
proceduresegments	Jump 100.00 °C; Isothermal 10.0 min; Jump 0.00 °C; Isothermal 5.0 min; Mark End of Cycle ; Ramp 5.00 °C/min to 100.00 °C; Mark End of Cycle ; Ramp 5.00 °C/min to 0.00 °C; Mark End of Cycle ; Ramp 5.00 °C/min to 100.00 °C; Mark End of Cycle ; Ramp 1.00 °C/min to 0.00 °C; Mark End of Cycle ; Ramp 5.00 °C/min to 100.00 °C; Mark End of Cycle ; Ramp 10.00 °C/min to 0.00 °C; Mark End of Cycle ; Ramp 10.00 °C/min to 100.00 °C; Mark End of Cycle ; Jump 0.00 °C; Mark End of Cycle
[step]
Ramp 1.00 °C/min to 0.00 °C
Time	Temperature	Heat Flow (Normalized)
s	°C	W/g
4500.30	98.88	-0.156573
4520.30	99.41	-0.0334423
4540.30	99.12	0.0236970
4560.30	98.80	0.0272759
4580.30	98.46	0.0283904
4600.30	98.13	0.0286738
4620.30	97.80	0.0287969
4640.30	97.47	0.0288145
4660.30	97.13	0.0287988
4680.30	96.80	0.0288174
4700.30	96.47	0.0288288
4720.30	96.13	0.0288062
4740.30	95.80	0.0288529
4760.30	95.47	0.0288650
4780.30	95.13	0.0288828
4800.30	94.80	0.0288986
4820.30	94.47	0.0288944
4840.30	94.13	0.0289116
4860.30	93.80	0.0288915
4880.30	93.47	0.0289052
4900.30	93.13	0.0289124
4920.30	92.80	0.0289432
4940.30	92.47	0.0289116
4960.30	92.13	0.0289020
4980.30	91.80	0.0289667
5000.30	91.47	0.0290191
5020.30	91.13	0.0289281
5040.30	90.80	0.0289528
5060.30	90.47	0.0289839
5080.30	90.13	0.0289975
5100.30	89.80	0.0290240
5120.30	89.47	0.0290423
5140.30	89.13	0.0290246
5160.30	88.80	0.0290725
5180.30	88.47	0.0290983
5200.30	88.14	0.0290888
5220.30	87.80	0.0291030
5240.30	87.47	0.0291007
5260.30	87.13	0.0291396
5280.30	86.80	0.0291544
5300.30	86.47	0.0291785
5320.30	86.14	0.0291713
5340.30	85.80	0.0291591
5360.30	85.47	0.0291904
5380.30	85.14	0.0292341
5400.30	84.80	0.0292402
5420.30	84.47	0.0292829
5440.30	84.14	0.0293034
5460.30	83.80	0.0293544
5480.30	83.47	0.0293343
5500.30	83.14	0.0293238
5520.30	82.80	0.0293348
5540.30	82.47	0.0293218
5560.30	82.14	0.0293740
5580.30	81.80	0.0293898
5600.30	81.47	0.0293947
5620.30	81.14	0.0293970
5640.30	80.80	0.0293791
5660.30	80.47	0.0294040
5680.30	80.13	0.0293860
5700.30	79.80	0.0294279
5720.30	79.47	0.0294962
5740.30	79.14	0.0294863
5760.30	78.80	0.0294739
5780.30	78.47	0.0294672
5800.30	78.14	0.0294952
5820.30	77.80	0.0294987
5840.30	77.47	0.0295203
5860.30	77.14	0.0295102
5880.30	76.80	0.0295125
5900.30	76.47	0.0295170
5920.30	76.14	0.0295085
5940.30	75.80	0.0295170
5960.30	75.47	0.0295238
5980.30	75.14	0.0295470
6000.30	74.80	0.0295544
6020.30	74.47	0.0295593
6040.30	74.14	0.0295496
6060.30	73.80	0.0295474
6080.30	73.47	0.0296073
6100.30	73.14	0.0296008
6120.30	72.80	0.0296317
6140.30	72.47	0.0295998
6160.30	72.14	0.0295797
6180.30	71.80	0.0295992
6200.30	71.47	0.0296423
6220.30	71.14	0.0296171
6240.30	70.80	0.0296541
6260.30	70.47	0.0296717
6280.30	70.14	0.0296255
6300.30	69.80	0.0296847
6320.30	69.47	0.0297170
6340.30	69.14	0.0297222
6360.30	68.80	0.0297206
6380.30	68.47	0.0297070
6400.30	68.14	0.0297144
6420.30	67.80	0.0297435
6440.30	67.47	0.0297750
6460.30	67.14	0.0298074
6480.30	66.80	0.0298010
6500.30	66.47	0.0297862
6520.30	66.14	0.0297816
6540.30	65.80	0.0298218
6560.30	65.47	0.0298283
6580.30	65.14	0.0298664
6600.30	64.80	0.0299044
6620.30	64.47	0.0298746
6640.30	64.14	0.0298661
6660.30	63.80	0.0299005
6680.30	63.47	0.0298893
6700.30	63.14	0.0299043
6720.30	62.80	0.0298738
6740.30	62.47	0.0298484
6760.30	62.14	0.0298242
6780.30	61.80	0.0298314
6800.30	61.47	0.0298609
6820.30	61.14	0.0298161
6840.30	60.80	0.0298525
6860.30	60.47	0.0298746
6880.30	60.14	0.0299205
6900.30	59.80	0.0298758
6920.30	59.47	0.0298309
6940.30	59.14	0.0298218
6960.30	58.80	0.0298063
6980.30	58.47	0.0298003
7000.30	58.14	0.0298095
7020.30	57.80	0.0298148
7040.30	57.47	0.0298452
7060.30	57.14	0.0298063
7080.30	56.80	0.0298423
7100.30	56.47	0.0298251
7120.30	56.14	0.0299284
7140.30	55.80	0.0305024
7160.30	55.47	0.0308201
7180.30	55.14	0.0310827
7200.30	54.80	0.0314775
7220.30	54.47	0.0320939
7240.30	54.14	0.0329578
7260.30	53.81	0.0334735
7280.30	53.47	0.0336152
7300.30	53.14	0.0337441
7320.30	52.81	0.0338202
7340.30	52.47	0.0338634
7360.30	52.14	0.0339918
7380.30	51.81	0.0340500
7400.30	51.47	0.0340725
7420.30	51.14	0.0342255
7440.30	50.81	0.0346292
7460.30	50.64	0.185167
7480.30	51.09	1.35490
7500.30	50.50	1.20316
7520.30	49.60	0.248987
7540.30	49.17	0.0830671
7560.30	48.82	0.0567241
7580.30	48.48	0.0514516
7600.30	48.15	0.0480334
7620.30	47.81	0.0457749
7640.30	47.48	0.0443424
7660.30	47.14	0.0431622
7680.30	46.81	0.0420549
7700.30	46.48	0.0410819
7720.30	46.14	0.0403751
7740.30	45.81	0.0397215
7760.30	45.48	0.0390342
7780.30	45.14	0.0384101
7800.30	44.81	0.0378673
7820.30	44.48	0.0374252
7840.30	44.14	0.0369665
7860.30	43.81	0.0364725
7880.30	43.47	0.0360493
7900.30	43.14	0.0356026
7920.30	42.81	0.0351594
7940.30	42.47	0.0348258
7960.30	42.14	0.0344401
7980.30	41.81	0.0341321
8000.30	41.47	0.0337757
8020.30	41.14	0.0334862
8040.30	40.81	0.0331642
8060.30	40.47	0.0328927
8080.30	40.14	0.0326508
8100.30	39.81	0.0323689
8120.30	39.47	0.0320843
8140.30	39.14	0.0318663
8160.30	38.80	0.0316505
8180.30	38.47	0.0314275
8200.30	38.14	0.0311985
8220.30	37.80	0.0309879
8240.30	37.47	0.0307984
8260.30	37.14	0.0306291
8280.30	36.80	0.0304163
8300.30	36.47	0.0302172
8320.30	36.14	0.0300554
8340.30	35.80	0.0299066
8360.30	35.47	0.0296972
8380.30	35.14	0.0295449
8400.30	34.80	0.0294372
8420.30	34.47	0.0292322
8440.30	34.14	0.0291485
8460.30	33.80	0.0290012
8480.30	33.47	0.0288851
8500.30	33.14	0.0286768
8520.30	32.80	0.0285867
8540.30	32.47	0.0284964
8560.30	32.14	0.0283510
8580.30	31.80	0.0282306
8600.30	31.47	0.0280784
8620.30	31.14	0.0279830
8640.30	30.80	0.0278625
8660.30	30.47	0.0277838
8680.30	30.13	0.0277015
8700.30	29.80	0.0275927
8720.30	29.47	0.0274630
8740.30	29.14	0.0274026
8760.30	28.80	0.0273006
8780.30	28.47	0.0272126
8800.30	28.13	0.0271440
8820.30	27.80	0.0269923
8840.30	27.47	0.0269290
8860.30	27.13	0.0268298
8880.30	26.80	0.0268257
8900.30	26.47	0.0267056
8920.30	26.13	0.0266347
8940.30	25.80	0.0265125
8960.30	25.47	0.0264319
8980.30	25.13	0.0263735
9000.30	24.80	0.0262033
9020.30	24.47	0.0261708
9040.30	24.13	0.0260784
9060.30	23.80	0.0260020
9080.30	23.47	0.0259123
9100.30	23.13	0.0258542
9120.30	22.80	0.0257877
9140.30	22.47	0.0256912
9160.30	22.13	0.0256214
9180.30	21.80	0.0255160
9200.30	21.47	0.0254421
9220.30	21.13	0.0253844
9240.30	20.80	0.0253341
9260.30	20.46	0.0252757
9280.30	20.13	0.0252474
9300.30	19.80	0.0251791
9320.30	19.47	0.0251082
9340.30	19.13	0.0250375
9360.30	18.80	0.0249595
9380.30	18.47	0.0249245
9400.30	18.13	0.0248669
9420.30	17.80	0.0247762
9440.30	17.47	0.0247312
9460.30	17.13	0.0246320
9480.30	16.80	0.0245464
9500.30	16.46	0.0244915
9520.30	16.13	0.0244127
9540.30	15.80	0.0243775
9560.30	15.47	0.0242858
9580.30	15.13	0.0242262
9600.30	14.80	0.0241791
9620.30	14.47	0.0241034
9640.30	14.13	0.0240998
9660.30	13.80	0.0240511
9680.30	13.46	0.0240083
9700.30	13.13	0.0239193
9720.30	12.80	0.0239269
9740.30	12.47	0.0238355
9760.30	12.13	0.0238325
9780.30	11.80	0.0237781
9800.30	11.46	0.0237513
9820.30	11.13	0.0236499
9840.30	10.80	0.0235926
9860.30	10.46	0.0235446
9880.30	10.13	0.0234829
9900.30	9.80	0.0234291
9920.30	9.47	0.0233731
9940.30	9.13	0.0233310
9960.30	8.80	0.0232014
9980.30	8.46	0.0231304
10000.3	8.13	0.0230999
10020.3	7.80	0.0230731
10040.3	7.46	0.0229826
10060.3	7.13	0.0230749
10080.3	6.80	0.0229595
10100.3	6.46	0.0228518
10120.3	6.13	0.0227830
10140.3	5.80	0.0227281
10160.3	5.46	0.0227045
10180.3	5.13	0.0226546
10200.3	4.80	0.0250412
10220.3	4.46	0.0233528
10240.3	4.13	0.0227436
10260.3	3.80	0.0225640
10280.3	3.46	0.0224812
10300.3	3.13	0.0224288
10320.3	2.80	0.0223559
10340.3	2.46	0.0223552
10360.3	2.13	0.0223203
10380.3	1.80	0.0223130
10400.3	1.46	0.0223289
10420.3	1.13	0.0222848
10440.3	0.80	0.0222491
10460.3	0.46	0.0222016
10480.3	0.13	0.0221881
10500.2	-0.20	0.0222237