Folder: StructuralDiversity/Differential scanning calorimetry/12OCB Squalene

Note: README.md
# StructuralDiversity
Raw data for manuscript "Structural diversity encountered during liquid-liquid crystal phase separation"

File: 12OCB SqE wt fraction 059.txt
Filename	Sq12OCB59T150
Instrument name	DSC2A-00101 (192.168.10.4)
Operator	Yuma
rundate	2/9/2021
Sample name	Sq12OCB59T150
proceduresegments	Jump 150.00 °C; Isothermal 10.0 min; Jump 0.00 °C; Isothermal 5.0 min; Mark End of Cycle ; Ramp 5.00 °C/min to 150.00 °C; Mark End of Cycle ; Ramp 5.00 °C/min to 0.00 °C; Mark End of Cycle ; Ramp 5.00 °C/min to 150.00 °C; Mark End of Cycle ; Ramp 1.00 °C/min to 0.00 °C; Mark End of Cycle ; Ramp 5.00 °C/min to 150.00 °C; Mark End of Cycle ; Ramp 10.00 °C/min to 0.00 °C; Mark End of Cycle ; Ramp 10.00 °C/min to 150.00 °C; Mark End of Cycle ; Jump 0.00 °C; Mark End of Cycle
[step]
Ramp 1.00 °C/min to 0.00 °C
Time	Temperature	Heat Flow (Normalized)
s	°C	W/g
6300.50	149.03	-0.183374
6330.50	149.40	0.0193393
6360.50	148.90	0.0301794
6390.50	148.41	0.0309801
6420.50	147.91	0.0310913
6450.50	147.41	0.0309510
6480.50	146.91	0.0309328
6510.50	146.41	0.0308708
6540.50	145.91	0.0307704
6570.50	145.41	0.0307765
6600.50	144.91	0.0305928
6630.50	144.41	0.0306939
6660.50	143.91	0.0306405
6690.50	143.41	0.0306519
6720.50	142.91	0.0305683
6750.50	142.41	0.0305114
6780.50	141.91	0.0305139
6810.50	141.41	0.0304835
6840.50	140.91	0.0304536
6870.50	140.41	0.0304941
6900.50	139.91	0.0304772
6930.50	139.41	0.0303674
6960.50	138.91	0.0304696
6990.50	138.41	0.0305037
7020.50	137.91	0.0303858
7050.50	137.41	0.0302548
7080.50	136.91	0.0304483
7110.50	136.41	0.0304683
7140.50	135.91	0.0304029
7170.50	135.41	0.0304819
7200.50	134.91	0.0303767
7230.50	134.41	0.0303787
7260.50	133.91	0.0302838
7290.50	133.41	0.0303784
7320.50	132.91	0.0302812
7350.50	132.41	0.0303433
7380.50	131.91	0.0303047
7410.50	131.41	0.0303370
7440.50	130.91	0.0304246
7470.50	130.41	0.0302585
7500.50	129.91	0.0303770
7530.50	129.41	0.0303970
7560.50	128.91	0.0304056
7590.50	128.41	0.0303021
7620.50	127.91	0.0302763
7650.50	127.41	0.0303237
7680.50	126.91	0.0302892
7710.50	126.41	0.0302729
7740.50	125.91	0.0302577
7770.50	125.41	0.0301599
7800.50	124.91	0.0301673
7830.50	124.41	0.0302792
7860.50	123.91	0.0302810
7890.50	123.41	0.0302262
7920.50	122.91	0.0302483
7950.50	122.41	0.0302219
7980.50	121.92	0.0301775
8010.50	121.42	0.0302028
8040.50	120.91	0.0301976
8070.50	120.41	0.0302129
8100.50	119.91	0.0302424
8130.50	119.41	0.0301807
8160.50	118.91	0.0301403
8190.50	118.42	0.0301661
8220.50	117.92	0.0302595
8250.50	117.41	0.0302162
8280.50	116.92	0.0302392
8310.50	116.41	0.0303063
8340.50	115.91	0.0301273
8370.50	115.42	0.0301478
8400.50	114.91	0.0301881
8430.50	114.42	0.0302280
8460.50	113.92	0.0301979
8490.50	113.41	0.0301594
8520.50	112.92	0.0301568
8550.50	112.42	0.0301056
8580.50	111.92	0.0301274
8610.50	111.42	0.0302197
8640.50	110.92	0.0301426
8670.50	110.42	0.0301231
8700.50	109.92	0.0301451
8730.50	109.41	0.0301685
8760.50	108.92	0.0301463
8790.50	108.42	0.0301415
8820.50	107.91	0.0301681
8850.50	107.42	0.0300893
8880.50	106.92	0.0301164
8910.50	106.42	0.0302087
8940.50	105.91	0.0302086
8970.50	105.42	0.0301530
9000.50	104.92	0.0301824
9030.50	104.42	0.0302404
9060.50	103.92	0.0302184
9090.50	103.42	0.0301820
9120.50	102.92	0.0301685
9150.50	102.42	0.0302036
9180.50	101.92	0.0301899
9210.50	101.42	0.0301508
9240.50	100.92	0.0302107
9270.50	100.42	0.0301965
9300.50	99.92	0.0302178
9330.50	99.42	0.0303079
9360.50	98.92	0.0302641
9390.50	98.42	0.0302706
9420.50	97.92	0.0302970
9450.50	97.42	0.0302792
9480.50	96.92	0.0302988
9510.50	96.42	0.0302967
9540.50	95.92	0.0303785
9570.50	95.42	0.0302561
9600.50	94.92	0.0303350
9630.50	94.42	0.0304253
9660.50	93.92	0.0304372
9690.50	93.42	0.0303888
9720.50	92.92	0.0304576
9750.50	92.42	0.0304836
9780.50	91.92	0.0304840
9810.50	91.42	0.0304992
9840.50	90.92	0.0305970
9870.50	90.42	0.0305806
9900.50	89.92	0.0306402
9930.50	89.42	0.0306485
9960.50	88.92	0.0307173
9990.50	88.42	0.0308331
10020.5	87.92	0.0307459
10050.5	87.42	0.0308643
10080.5	86.92	0.0308988
10110.5	86.42	0.0309442
10140.5	85.92	0.0310278
10170.5	85.42	0.0311218
10200.5	84.92	0.0312404
10230.5	84.42	0.0313153
10260.5	83.92	0.0315229
10290.5	83.42	0.0316045
10320.5	82.92	0.0317701
10350.5	82.42	0.0319111
10380.5	81.92	0.0324619
10410.5	81.44	0.0836182
10440.5	80.94	0.0871017
10470.5	80.43	0.0717737
10500.5	79.93	0.0593736
10530.5	79.43	0.0585525
10560.5	78.93	0.0563381
10590.5	78.42	0.0524399
10620.5	77.92	0.0494587
10650.5	77.42	0.0472213
10680.5	76.92	0.0454823
10710.5	76.42	0.0435824
10740.5	75.92	0.0422609
10770.5	75.42	0.0410619
10800.5	74.92	0.0399911
10830.5	74.42	0.0389055
10860.5	73.92	0.0379786
10890.5	73.42	0.0371533
10920.5	72.92	0.0363532
10950.5	72.42	0.0357522
10980.5	71.92	0.0352681
11010.5	71.42	0.0348027
11040.5	70.92	0.0343887
11070.5	70.42	0.0339712
11100.5	69.92	0.0336699
11130.5	69.42	0.0333709
11160.5	68.92	0.0330186
11190.5	68.42	0.0328209
11220.5	67.92	0.0325990
11250.5	67.42	0.0323108
11280.5	66.92	0.0320491
11310.5	66.42	0.0318209
11340.5	65.92	0.0317111
11370.5	65.42	0.0314884
11400.5	64.92	0.0312319
11430.5	64.42	0.0310771
11460.5	63.92	0.0309252
11490.5	63.42	0.0307545
11520.5	62.92	0.0306510
11550.5	62.42	0.0305468
11580.5	61.92	0.0304134
11610.5	61.42	0.0303349
11640.5	60.91	0.0301889
11670.5	60.42	0.0301013
11700.5	59.92	0.0299999
11730.5	59.42	0.0298594
11760.5	58.92	0.0298553
11790.5	58.41	0.0297754
11820.5	57.92	0.0296390
11850.5	57.42	0.0295750
11880.5	56.92	0.0295329
11910.5	56.41	0.0294797
11940.5	55.92	0.0293860
11970.5	55.42	0.0293185
12000.5	54.92	0.0292531
12030.5	54.41	0.0292329
12060.5	53.91	0.0291883
12090.5	53.42	0.0290951
12120.5	52.91	0.0289925
12150.5	52.42	0.0290086
12180.5	51.92	0.0289361
12210.5	51.42	0.0289241
12240.5	50.91	0.0289171
12270.5	50.42	0.0288092
12300.5	49.91	0.0287642
12330.5	49.42	0.0286867
12360.5	48.92	0.0286339
12390.5	48.41	0.0286123
12420.5	47.91	0.0285120
12450.5	47.42	0.0287196
12480.5	46.91	0.0284997
12510.5	46.41	0.0283829
12540.5	45.91	0.0285001
12570.5	45.41	0.0284950
12600.5	44.91	0.0283633
12630.5	44.41	0.0283019
12660.5	44.56	0.336172
12690.5	43.85	1.13923
12720.5	42.92	0.0370447
12750.5	42.41	0.0275999
12780.5	41.91	0.0254148
12810.5	41.41	0.0246101
12840.5	40.91	0.0240832
12870.5	40.41	0.0238511
12900.5	39.91	0.0235188
12930.5	39.41	0.0232515
12960.5	38.91	0.0230819
12990.5	38.41	0.0228618
13020.5	37.91	0.0226606
13050.5	37.41	0.0225272
13080.5	36.91	0.0223359
13110.5	36.41	0.0222275
13140.5	35.91	0.0220800
13170.5	35.41	0.0219897
13200.5	34.91	0.0217814
13230.5	34.41	0.0217352
13260.5	33.91	0.0216272
13290.5	33.41	0.0215369
13320.5	32.91	0.0214106
13350.5	32.41	0.0213492
13380.5	31.91	0.0212648
13410.5	31.41	0.0211259
13440.5	30.91	0.0210385
13470.5	30.41	0.0209513
13500.5	29.91	0.0208525
13530.5	29.41	0.0207743
13560.5	28.91	0.0207547
13590.5	28.41	0.0206557
13620.5	27.91	0.0204979
13650.5	27.41	0.0204531
13680.5	26.91	0.0204062
13710.5	26.41	0.0203290
13740.5	25.91	0.0202879
13770.5	25.41	0.0201276
13800.5	24.91	0.0201015
13830.5	24.41	0.0200826
13860.5	23.91	0.0200144
13890.5	23.41	0.0200144
13920.5	22.91	0.0198468
13950.5	22.41	0.0198017
13980.5	21.91	0.0197621
14010.5	21.41	0.0196933
14040.5	20.91	0.0195691
14070.5	20.41	0.0196322
14100.5	19.91	0.0198846
14130.5	19.41	0.0195147
14160.5	18.91	0.0193006
14190.5	18.41	0.0193818
14220.5	17.91	0.0192709
14250.5	17.41	0.0191775
14280.5	16.91	0.0195598
14310.5	16.41	0.0191059
14340.5	15.91	0.0189443
14370.5	15.41	0.0188184
14400.5	14.91	0.0187894
14430.5	14.41	0.0187520
14460.5	13.91	0.0185903
14490.5	13.41	0.0185939
14520.5	12.91	0.0185531
14550.5	12.41	0.0185062
14580.5	11.91	0.0184723
14610.5	11.41	0.0183603
14640.5	10.91	0.0182383
14670.5	10.41	0.0181756
14700.5	9.91	0.0181590
14730.5	9.41	0.0181012
14760.5	8.91	0.0179493
14790.5	8.40	0.0179255
14820.5	7.91	0.0178079
14850.5	7.41	0.0178479
14880.5	6.91	0.0178169
14910.5	6.41	0.0178036
14940.5	5.90	0.0177071
14970.5	5.41	0.0175499
15000.5	4.91	0.0174767
15030.5	4.41	0.0174230
15060.5	3.91	0.0173756
15090.5	3.40	0.0173730
15120.5	2.91	0.0173586
15150.5	2.41	0.0172621
15180.5	1.91	0.0172160
15210.5	1.41	0.0171926
15240.5	0.90	0.0172225
15270.5	0.40	0.0172427
15300.4	-0.09	0.0172229

File: 12OCB SqE wt fraction 135.txt
Filename	Sq12OCB135T150
Instrument name	DSC2A-00101 (192.168.10.4)
Operator	Yuma
rundate	2/8/2021
Sample name	Sq12OCB135T150
proceduresegments	Jump 100.00 °C; Isothermal 10.0 min; Jump 0.00 °C; Isothermal 5.0 min; Mark End of Cycle ; Ramp 5.00 °C/min to 100.00 °C; Mark End of Cycle ; Ramp 5.00 °C/min to 0.00 °C; Mark End of Cycle ; Ramp 5.00 °C/min to 100.00 °C; Mark End of Cycle ; Ramp 1.00 °C/min to 0.00 °C; Mark End of Cycle ; Ramp 5.00 °C/min to 100.00 °C; Mark End of Cycle ; Ramp 10.00 °C/min to 0.00 °C; Mark End of Cycle ; Ramp 10.00 °C/min to 100.00 °C; Mark End of Cycle ; Jump 0.00 °C; Mark End of Cycle
[step]
Ramp 1.00 °C/min to 0.00 °C
Time	Temperature	Heat Flow (Normalized)
s	°C	W/g
4500.30	99.01	-0.171560
4520.30	99.51	-0.0246545
4540.30	99.20	0.0294428
4560.30	98.87	0.0337435
4580.30	98.54	0.0349037
4600.30	98.21	0.0350736
4620.30	97.88	0.0351232
4640.30	97.54	0.0348352
4660.30	97.21	0.0347544
4680.30	96.88	0.0346388
4700.30	96.54	0.0345979
4720.30	96.21	0.0345734
4740.30	95.88	0.0343525
4760.30	95.54	0.0342201
4780.30	95.21	0.0342381
4800.30	94.88	0.0341449
4820.30	94.54	0.0340497
4840.30	94.21	0.0339970
4860.30	93.88	0.0338785
4880.30	93.54	0.0337888
4900.30	93.21	0.0337951
4920.30	92.88	0.0338170
4940.30	92.54	0.0337247
4960.30	92.21	0.0336706
4980.30	91.88	0.0336121
5000.30	91.54	0.0335487
5020.30	91.21	0.0335370
5040.30	90.88	0.0333430
5060.30	90.54	0.0333547
5080.30	90.21	0.0333412
5100.30	89.88	0.0332850
5120.30	89.55	0.0332949
5140.30	89.21	0.0333538
5160.30	88.88	0.0332337
5180.30	88.55	0.0331663
5200.30	88.21	0.0333661
5220.30	87.88	0.0332303
5240.30	87.54	0.0330926
5260.30	87.21	0.0331530
5280.30	86.88	0.0331834
5300.30	86.54	0.0331903
5320.30	86.21	0.0331193
5340.30	85.88	0.0331874
5360.30	85.54	0.0331829
5380.30	85.21	0.0330426
5400.30	84.88	0.0331213
5420.30	84.54	0.0331890
5440.30	84.21	0.0331443
5460.30	83.88	0.0331789
5480.30	83.54	0.0331985
5500.30	83.21	0.0331334
5520.30	82.88	0.0330760
5540.30	82.54	0.0331226
5560.30	82.21	0.0331823
5580.30	81.88	0.0330614
5600.30	81.54	0.0332363
5620.30	81.21	0.0331389
5640.30	80.88	0.0331998
5660.30	80.55	0.0332056
5680.30	80.21	0.0332359
5700.30	79.88	0.0332703
5720.30	79.55	0.0332626
5740.30	79.21	0.0334081
5760.30	78.88	0.0333446
5780.30	78.55	0.0334599
5800.30	78.21	0.0335515
5820.30	77.88	0.0336499
5840.30	77.54	0.0337932
5860.30	77.21	0.0338229
5880.30	76.88	0.0338606
5900.30	76.55	0.0341414
5920.30	76.21	0.0366408
5940.30	75.89	0.0514288
5960.30	75.56	0.0709981
5980.30	75.22	0.0678074
6000.30	74.89	0.0618465
6020.30	74.55	0.0581492
6040.30	74.22	0.0556696
6060.30	73.89	0.0538736
6080.30	73.55	0.0527016
6100.30	73.22	0.0512993
6120.30	72.88	0.0496490
6140.30	72.55	0.0491573
6160.30	72.22	0.0481262
6180.30	71.88	0.0474869
6200.30	71.55	0.0469063
6220.30	71.22	0.0460071
6240.30	70.88	0.0452693
6260.30	70.55	0.0448379
6280.30	70.22	0.0443707
6300.30	69.88	0.0440036
6320.30	69.55	0.0436071
6340.30	69.21	0.0429118
6360.30	68.88	0.0424075
6380.30	68.55	0.0419190
6400.30	68.22	0.0413870
6420.30	67.88	0.0410651
6440.30	67.55	0.0407887
6460.30	67.21	0.0403078
6480.30	66.88	0.0399770
6500.30	66.55	0.0395668
6520.30	66.21	0.0392889
6540.30	65.88	0.0388297
6560.30	65.55	0.0385503
6580.30	65.21	0.0383150
6600.30	64.88	0.0379501
6620.30	64.55	0.0377775
6640.30	64.21	0.0375308
6660.30	63.88	0.0373027
6680.30	63.55	0.0370948
6700.30	63.21	0.0369112
6720.30	62.88	0.0364896
6740.30	62.55	0.0363875
6760.30	62.21	0.0361979
6780.30	61.88	0.0360718
6800.30	61.55	0.0358196
6820.30	61.21	0.0357390
6840.30	60.88	0.0357087
6860.30	60.55	0.0353207
6880.30	60.21	0.0351202
6900.30	59.88	0.0350344
6920.30	59.55	0.0349324
6940.30	59.21	0.0346488
6960.30	58.88	0.0346464
6980.30	58.55	0.0347246
7000.30	58.21	0.0344620
7020.30	57.88	0.0344040
7040.30	57.55	0.0341748
7060.30	57.21	0.0339124
7080.30	56.88	0.0338729
7100.30	56.55	0.0339644
7120.30	56.21	0.0337517
7140.30	55.88	0.0337303
7160.30	55.54	0.0335745
7180.30	55.21	0.0335465
7200.30	54.88	0.0333816
7220.30	54.55	0.0332261
7240.30	54.21	0.0332963
7260.30	53.88	0.0333846
7280.30	53.54	0.0334503
7300.30	53.21	0.0332558
7320.30	52.88	0.0332236
7340.30	52.55	0.0333699
7360.30	52.21	0.0333719
7380.30	51.88	0.0332128
7400.30	51.54	0.0330840
7420.30	51.21	0.0328652
7440.30	50.88	0.0328776
7460.30	50.55	0.0328908
7480.30	50.21	0.0328469
7500.30	49.88	0.0326738
7520.30	49.55	0.0325860
7540.30	49.21	0.0325692
7560.30	48.97	-0.0704876
7580.30	49.39	2.55544
7600.30	48.48	1.01547
7620.30	47.90	0.100309
7640.30	47.55	0.0460604
7660.30	47.21	0.0399162
7680.30	46.88	0.0363902
7700.30	46.54	0.0344584
7720.30	46.21	0.0334429
7740.30	45.88	0.0327739
7760.30	45.54	0.0321740
7780.30	45.21	0.0316162
7800.30	44.88	0.0311192
7820.30	44.54	0.0308077
7840.30	44.21	0.0304446
7860.30	43.88	0.0301552
7880.30	43.54	0.0298239
7900.30	43.21	0.0295525
7920.30	42.88	0.0291412
7940.30	42.54	0.0288641
7960.30	42.21	0.0285356
7980.30	41.88	0.0285159
8000.30	41.54	0.0281906
8020.30	41.21	0.0280035
8040.30	40.88	0.0278375
8060.30	40.54	0.0276403
8080.30	40.21	0.0275383
8100.30	39.88	0.0272674
8120.30	39.54	0.0272263
8140.30	39.20	0.0271796
8160.30	38.87	0.0269044
8180.30	38.54	0.0264424
8200.30	38.21	0.0263279
8220.30	37.88	0.0262043
8240.30	37.54	0.0261724
8260.30	37.21	0.0260867
8280.30	36.87	0.0259574
8300.30	36.54	0.0258327
8320.30	36.21	0.0257061
8340.30	35.88	0.0255661
8360.30	35.55	0.0251062
8380.30	35.21	0.0253193
8400.30	34.88	0.0253985
8420.30	34.54	0.0253821
8440.30	34.21	0.0251368
8460.30	33.88	0.0250441
8480.30	33.54	0.0249357
8500.30	33.21	0.0248508
8520.30	32.87	0.0247859
8540.30	32.54	0.0245996
8560.30	32.21	0.0243332
8580.30	31.87	0.0246134
8600.30	31.54	0.0242877
8620.30	31.21	0.0240255
8640.30	30.88	0.0235467
8660.30	30.54	0.0240733
8680.30	30.21	0.0241747
8700.30	29.87	0.0241043
8720.30	29.54	0.0241752
8740.30	29.21	0.0238119
8760.30	28.87	0.0235442
8780.30	28.54	0.0235354
8800.30	28.21	0.0235547
8820.30	27.87	0.0234298
8840.30	27.54	0.0230287
8860.30	27.21	0.0232276
8880.30	26.87	0.0233715
8900.30	26.54	0.0231753
8920.30	26.21	0.0230830
8940.30	25.87	0.0229012
8960.30	25.54	0.0229584
8980.30	25.21	0.0228427
9000.30	24.88	0.0226693
9020.30	24.54	0.0226772
9040.30	24.21	0.0228519
9060.30	23.87	0.0227085
9080.30	23.54	0.0226401
9100.30	23.21	0.0222470
9120.30	22.87	0.0224203
9140.30	22.54	0.0223775
9160.30	22.20	0.0222568
9180.30	21.87	0.0222775
9200.30	21.54	0.0223173
9220.30	21.21	0.0219471
9240.30	20.87	0.0220875
9260.30	20.54	0.0222150
9280.30	20.21	0.0222212
9300.30	19.87	0.0221746
9320.30	19.53	0.0227999
9340.30	19.20	0.0225650
9360.30	18.88	0.0216747
9380.30	18.54	0.0218820
9400.30	18.21	0.0218170
9420.30	17.87	0.0218527
9440.30	17.53	0.0219656
9460.30	17.21	0.0215823
9480.30	16.87	0.0219917
9500.30	16.54	0.0214983
9520.30	16.21	0.0215536
9540.30	15.87	0.0215036
9560.30	15.53	0.0216208
9580.30	15.20	0.0215793
9600.30	14.87	0.0212256
9620.30	14.54	0.0211605
9640.30	14.20	0.0211385
9660.30	13.87	0.0210011
9680.30	13.54	0.0212712
9700.30	13.21	0.0211165
9720.30	12.87	0.0210786
9740.30	12.54	0.0209524
9760.30	12.20	0.0209019
9780.30	11.87	0.0208566
9800.30	11.54	0.0207752
9820.30	11.21	0.0207341
9840.30	10.87	0.0208258
9860.30	10.54	0.0207545
9880.30	10.20	0.0206910
9900.30	9.87	0.0206198
9920.30	9.54	0.0205760
9940.30	9.20	0.0204473
9960.30	8.87	0.0203021
9980.30	8.54	0.0202926
10000.3	8.20	0.0202061
10020.3	7.87	0.0201854
10040.3	7.54	0.0200691
10060.3	7.20	0.0199786
10080.3	6.87	0.0200043
10100.3	6.54	0.0199382
10120.3	6.20	0.0199676
10140.3	5.87	0.0198945
10160.3	5.54	0.0197306
10180.3	5.20	0.0197753
10200.3	4.87	0.0197297
10220.3	4.54	0.0196553
10240.3	4.20	0.0195633
10260.3	3.87	0.0195820
10280.3	3.54	0.0194753
10300.3	3.20	0.0194917
10320.3	2.87	0.0193761
10340.3	2.54	0.0194066
10360.3	2.20	0.0193692
10380.3	1.87	0.0194299
10400.3	1.54	0.0193668
10420.3	1.20	0.0194054
10440.3	0.87	0.0193375
10460.3	0.54	0.0193871
10480.3	0.20	0.0193851
10500.2	-0.13	0.0193873

File: 12OCB SqE wt fraction 150.txt
Filename	Sq12OCB550T150
Instrument name	DSC2A-00101 (192.168.10.4)
Operator	Yuma
rundate	2/8/2021
Sample name	Sq12OCB550T150
proceduresegments	Jump 100.00 °C; Isothermal 10.0 min; Jump 0.00 °C; Isothermal 5.0 min; Mark End of Cycle ; Ramp 5.00 °C/min to 100.00 °C; Mark End of Cycle ; Ramp 5.00 °C/min to 0.00 °C; Mark End of Cycle ; Ramp 5.00 °C/min to 100.00 °C; Mark End of Cycle ; Ramp 1.00 °C/min to 0.00 °C; Mark End of Cycle ; Ramp 5.00 °C/min to 100.00 °C; Mark End of Cycle ; Ramp 10.00 °C/min to 0.00 °C; Mark End of Cycle ; Ramp 10.00 °C/min to 100.00 °C; Mark End of Cycle ; Jump 0.00 °C; Mark End of Cycle
[step]
Ramp 1.00 °C/min to 0.00 °C
Time	Temperature	Heat Flow (Normalized)
s	°C	W/g
4500.30	98.94	-0.190829
4520.30	99.49	-0.0332226
4540.30	99.21	0.0320404
4560.30	98.88	0.0358598
4580.30	98.55	0.0369417
4600.30	98.22	0.0370384
4620.30	97.89	0.0369763
4640.30	97.55	0.0368049
4660.30	97.22	0.0366719
4680.30	96.88	0.0364907
4700.30	96.55	0.0364051
4720.30	96.22	0.0362920
4740.30	95.89	0.0362569
4760.30	95.55	0.0361735
4780.30	95.22	0.0360061
4800.30	94.89	0.0358547
4820.30	94.55	0.0358778
4840.30	94.22	0.0359160
4860.30	93.89	0.0358056
4880.30	93.55	0.0356898
4900.30	93.22	0.0357274
4920.30	92.89	0.0355982
4940.30	92.55	0.0355597
4960.30	92.22	0.0355518
4980.30	91.89	0.0354755
5000.30	91.55	0.0355064
5020.30	91.22	0.0355746
5040.30	90.89	0.0353044
5060.30	90.55	0.0353408
5080.30	90.22	0.0354046
5100.30	89.89	0.0353025
5120.30	89.55	0.0352445
5140.30	89.22	0.0354481
5160.30	88.89	0.0353164
5180.30	88.55	0.0353737
5200.30	88.22	0.0352791
5220.30	87.89	0.0352606
5240.30	87.55	0.0353923
5260.30	87.22	0.0352911
5280.30	86.89	0.0352260
5300.30	86.55	0.0353171
5320.30	86.22	0.0353334
5340.30	85.89	0.0353013
5360.30	85.55	0.0351138
5380.30	85.22	0.0351323
5400.30	84.89	0.0352642
5420.30	84.55	0.0352698
5440.30	84.22	0.0351477
5460.30	83.89	0.0352217
5480.30	83.55	0.0352070
5500.30	83.22	0.0352356
5520.30	82.89	0.0351350
5540.30	82.55	0.0351706
5560.30	82.22	0.0351546
5580.30	81.89	0.0350522
5600.30	81.55	0.0351346
5620.30	81.22	0.0352001
5640.30	80.89	0.0350617
5660.30	80.55	0.0349756
5680.30	80.22	0.0350348
5700.30	79.89	0.0350601
5720.30	79.56	0.0349621
5740.30	79.22	0.0350841
5760.30	78.89	0.0350660
5780.30	78.55	0.0350441
5800.30	78.22	0.0349898
5820.30	77.89	0.0349413
5840.30	77.55	0.0350566
5860.30	77.22	0.0349733
5880.30	76.89	0.0349465
5900.30	76.55	0.0350063
5920.30	76.22	0.0349343
5940.30	75.89	0.0349225
5960.30	75.55	0.0349475
5980.30	75.22	0.0350225
6000.30	74.89	0.0350181
6020.30	74.55	0.0348326
6040.30	74.22	0.0348001
6060.30	73.89	0.0349871
6080.30	73.56	0.0346148
6100.30	73.22	0.0349869
6120.30	72.89	0.0349298
6140.30	72.56	0.0349238
6160.30	72.22	0.0347864
6180.30	71.89	0.0349285
6200.30	71.55	0.0348388
6220.30	71.22	0.0348156
6240.30	70.89	0.0348225
6260.30	70.55	0.0351845
6280.30	70.22	0.0347727
6300.30	69.89	0.0346329
6320.30	69.56	0.0346754
6340.30	69.22	0.0347412
6360.30	68.89	0.0347264
6380.30	68.56	0.0341826
6400.30	68.22	0.0348149
6420.30	67.89	0.0347616
6440.30	67.56	0.0347977
6460.30	67.22	0.0347025
6480.30	66.88	0.0351458
6500.30	66.55	0.0345704
6520.30	66.22	0.0345970
6540.30	65.89	0.0345684
6560.30	65.56	0.0346383
6580.30	65.22	0.0346729
6600.30	64.89	0.0346756
6620.30	64.56	0.0346829
6640.30	64.22	0.0346753
6660.30	63.89	0.0346380
6680.30	63.56	0.0346384
6700.30	63.22	0.0346573
6720.30	62.89	0.0346507
6740.30	62.56	0.0346704
6760.30	62.22	0.0346557
6780.30	61.89	0.0345821
6800.30	61.56	0.0345655
6820.30	61.22	0.0345940
6840.30	60.89	0.0345848
6860.30	60.55	0.0345667
6880.30	60.22	0.0345763
6900.30	59.89	0.0345977
6920.30	59.55	0.0345866
6940.30	59.22	0.0345361
6960.30	58.89	0.0345616
6980.30	58.56	0.0345594
7000.30	58.22	0.0345222
7020.30	57.89	0.0345355
7040.30	57.56	0.0345091
7060.30	57.22	0.0345339
7080.30	56.89	0.0345632
7100.30	56.56	0.0345100
7120.30	56.23	0.0338649
7140.30	55.89	0.0344684
7160.30	55.56	0.0347343
7180.30	55.22	0.0346134
7200.30	54.89	0.0345530
7220.30	54.56	0.0343920
7240.30	54.22	0.0344946
7260.30	53.89	0.0344455
7280.30	53.55	0.0344151
7300.30	53.22	0.0344144
7320.30	52.89	0.0343968
7340.30	52.56	0.0344233
7360.30	52.22	0.0344525
7380.30	51.89	0.0344735
7400.30	51.55	0.0344261
7420.30	51.22	0.0343793
7440.30	50.89	0.0343289
7460.30	50.56	0.0343924
7480.30	50.22	0.0343294
7500.30	49.89	0.0344912
7520.30	50.04	0.541498
7540.30	50.24	1.67467
7560.30	49.04	0.290815
7580.30	48.59	0.0985516
7600.30	48.24	0.0699868
7620.30	47.91	0.0635304
7640.30	47.57	0.0593589
7660.30	47.23	0.0563866
7680.30	46.90	0.0536585
7700.30	46.57	0.0522540
7720.30	46.23	0.0510703
7740.30	45.90	0.0499553
7760.30	45.56	0.0491615
7780.30	45.23	0.0478920
7800.30	44.90	0.0471486
7820.30	44.56	0.0464073
7840.30	44.23	0.0458484
7860.30	43.90	0.0451660
7880.30	43.56	0.0446015
7900.30	43.23	0.0440248
7920.30	42.89	0.0434228
7940.30	42.56	0.0430429
7960.30	42.23	0.0426413
7980.30	41.89	0.0421111
8000.30	41.56	0.0417022
8020.30	41.23	0.0413465
8040.30	40.89	0.0409612
8060.30	40.56	0.0405050
8080.30	40.23	0.0401275
8100.30	39.89	0.0397724
8120.30	39.56	0.0395363
8140.30	39.22	0.0393115
8160.30	38.89	0.0389270
8180.30	38.56	0.0386702
8200.30	38.22	0.0383785
8220.30	37.89	0.0381264
8240.30	37.56	0.0378895
8260.30	37.22	0.0377235
8280.30	36.89	0.0374872
8300.30	36.56	0.0372512
8320.30	36.22	0.0369946
8340.30	35.89	0.0368954
8360.30	35.56	0.0366455
8380.30	35.22	0.0360898
8400.30	34.89	0.0361752
8420.30	34.56	0.0360940
8440.30	34.22	0.0358624
8460.30	33.89	0.0357427
8480.30	33.55	0.0356172
8500.30	33.22	0.0354071
8520.30	32.89	0.0352248
8540.30	32.56	0.0350322
8560.30	32.22	0.0349687
8580.30	31.89	0.0347554
8600.30	31.55	0.0348100
8620.30	31.22	0.0346096
8640.30	30.89	0.0344800
8660.30	30.55	0.0343152
8680.30	30.22	0.0343629
8700.30	29.89	0.0341095
8720.30	29.55	0.0340976
8740.30	29.22	0.0339871
8760.30	28.89	0.0336437
8780.30	28.55	0.0338590
8800.30	28.22	0.0333813
8820.30	27.89	0.0335887
8840.30	27.55	0.0332727
8860.30	27.22	0.0333501
8880.30	26.89	0.0333180
8900.30	26.55	0.0332701
8920.30	26.22	0.0330972
8940.30	25.89	0.0330372
8960.30	25.56	0.0328288
8980.30	25.22	0.0327281
9000.30	24.89	0.0327228
9020.30	24.55	0.0325746
9040.30	24.22	0.0325661
9060.30	23.88	0.0325356
9080.30	23.55	0.0322639
9100.30	23.22	0.0322003
9120.30	22.89	0.0321645
9140.30	22.55	0.0320665
9160.30	22.22	0.0320080
9180.30	21.89	0.0319675
9200.30	21.55	0.0318356
9220.30	21.22	0.0317944
9240.30	20.89	0.0317753
9260.30	20.55	0.0316252
9280.30	20.22	0.0315616
9300.30	19.89	0.0314421
9320.30	19.55	0.0313966
9340.30	19.22	0.0313336
9360.30	18.88	0.0312839
9380.30	18.55	0.0311628
9400.30	18.22	0.0311127
9420.30	17.89	0.0310716
9440.30	17.55	0.0310350
9460.30	17.22	0.0309888
9480.30	16.89	0.0308854
9500.30	16.55	0.0308333
9520.30	16.22	0.0307538
9540.30	15.88	0.0306776
9560.30	15.55	0.0306454
9580.30	15.22	0.0305789
9600.30	14.89	0.0304707
9620.30	14.55	0.0304423
9640.30	14.22	0.0304258
9660.30	13.88	0.0303164
9680.30	13.55	0.0302620
9700.30	13.22	0.0301783
9720.30	12.88	0.0301691
9740.30	12.55	0.0300839
9760.30	12.22	0.0300048
9780.30	11.89	0.0300080
9800.30	11.55	0.0299959
9820.30	11.22	0.0299099
9840.30	10.88	0.0298160
9860.30	10.55	0.0297474
9880.30	10.22	0.0296871
9900.30	9.88	0.0296695
9920.30	9.55	0.0296313
9940.30	9.22	0.0295845
9960.30	8.88	0.0295042
9980.30	8.55	0.0294168
10000.3	8.22	0.0294338
10020.3	7.88	0.0293706
10040.3	7.55	0.0293332
10060.3	7.22	0.0292544
10080.3	6.88	0.0292478
10100.3	6.55	0.0324979
10120.3	6.22	0.0305422
10140.3	5.88	0.0294737
10160.3	5.55	0.0291201
10180.3	5.22	0.0290196
10200.3	4.88	0.0289317
10220.3	4.55	0.0289133
10240.3	4.22	0.0289002
10260.3	3.88	0.0288352
10280.3	3.55	0.0287911
10300.3	3.22	0.0287233
10320.3	2.88	0.0287638
10340.3	2.55	0.0287390
10360.3	2.22	0.0287233
10380.3	1.88	0.0286550
10400.3	1.55	0.0286438
10420.3	1.22	0.0286205
10440.3	0.88	0.0285931
10460.3	0.55	0.0285877
10480.3	0.22	0.0285928
10500.2	-0.12	0.0285485