Folder: StructuralDiversity/Differential scanning calorimetry/8OCB Squalane (part 2)

File: 8OCB SqA wt fraction 133.txt
Filename	8OCBSA133
Instrument name	DSC2A-00101 (192.168.10.4)
Operator	Yuma
rundate	5/28/2021
Sample name	8OCBSA133
proceduresegments	Data Off ; Equilibrate 150.00 °C; Isothermal 10.0 min; Equilibrate 100.00 °C; Isothermal 5.0 min; Data On ; Ramp 1.00 °C/min to 0.00 °C; Ramp 5.00 °C/min to 150.00 °C; Data Off ; Isothermal 10.0 min; Modulate Temperature 1.00 °C for 60.0 s; Equilibrate 100.00 °C; Isothermal 10.0 min; Data On ; Ramp 1.00 °C/min to 0.00 °C; Ramp 3.00 °C/min to 100.00 °C; Jump 30.00 °C
[step]
Ramp 1.00 °C/min to 0.00 °C
Time	Temperature	Heat Flow (Normalized)
s	°C	W/g
0.00000	99.84	6.47741e-3
20.0000	99.64	0.0218517
40.0000	99.32	0.0322173
60.0000	98.99	0.0344327
80.0000	98.66	0.0351196
100.000	98.32	0.0353173
120.000	97.99	0.0353964
140.000	97.66	0.0353086
160.000	97.33	0.0352019
180.000	96.99	0.0352857
200.000	96.66	0.0352992
220.000	96.32	0.0352751
240.000	95.99	0.0351076
260.000	95.66	0.0351099
280.000	95.32	0.0350796
300.000	94.99	0.0350876
320.000	94.66	0.0349474
340.000	94.32	0.0349681
360.000	93.99	0.0349685
380.000	93.66	0.0349559
400.000	93.33	0.0349225
420.000	92.99	0.0348554
440.000	92.66	0.0348081
460.000	92.32	0.0348328
480.000	91.99	0.0347247
500.000	91.66	0.0346378
520.000	91.33	0.0346889
540.000	90.99	0.0347001
560.000	90.66	0.0347156
580.000	90.33	0.0345761
600.000	89.99	0.0345442
620.000	89.66	0.0345074
640.000	89.33	0.0344615
660.000	88.99	0.0344085
680.000	88.66	0.0344829
700.000	88.33	0.0344879
720.000	87.99	0.0344236
740.000	87.66	0.0343849
760.000	87.33	0.0343388
780.000	86.99	0.0343774
800.000	86.66	0.0343643
820.000	86.33	0.0343240
840.000	85.99	0.0341831
860.000	85.66	0.0341989
880.000	85.33	0.0341595
900.000	84.99	0.0341395
920.000	84.66	0.0341366
940.000	84.33	0.0340689
960.000	83.99	0.0340139
980.000	83.66	0.0340442
1000.00	83.33	0.0340698
1020.00	82.99	0.0339776
1040.00	82.66	0.0340171
1060.00	82.33	0.0339178
1080.00	81.99	0.0338807
1100.00	81.66	0.0339599
1120.00	81.33	0.0339566
1140.00	80.99	0.0338994
1160.00	80.66	0.0338342
1180.00	80.33	0.0338077
1200.00	80.00	0.0338435
1220.00	79.66	0.0338235
1240.00	79.33	0.0338552
1260.00	78.99	0.0338595
1280.00	78.66	0.0338319
1300.00	78.33	0.0337937
1320.00	77.99	0.0338104
1340.00	77.66	0.0337585
1360.00	77.33	0.0337713
1380.00	76.99	0.0338101
1400.00	76.66	0.0337678
1420.00	76.33	0.0337715
1440.00	76.00	0.0337765
1460.00	75.66	0.0337379
1480.00	75.33	0.0337421
1500.00	74.99	0.0337127
1520.00	74.66	0.0337843
1540.00	74.33	0.0337574
1560.00	74.00	0.0337336
1580.00	73.66	0.0338061
1600.00	73.33	0.0337688
1620.00	73.00	0.0338499
1640.00	72.66	0.0338538
1660.00	72.33	0.0338623
1680.00	72.00	0.0339048
1700.00	71.66	0.0338417
1720.00	71.33	0.0339124
1740.00	71.00	0.0339295
1760.00	70.66	0.0339550
1780.00	70.33	0.0339000
1800.00	70.00	0.0339713
1820.00	69.66	0.0339792
1840.00	69.33	0.0340566
1860.00	69.00	0.0340732
1880.00	68.66	0.0341148
1900.00	68.33	0.0341544
1920.00	68.00	0.0342168
1940.00	67.66	0.0343694
1960.00	67.33	0.0345196
1980.00	67.00	0.0345610
2000.00	66.66	0.0346044
2020.00	66.33	0.0347487
2040.00	66.00	0.0348063
2060.00	65.66	0.0350390
2080.00	65.33	0.0352825
2100.00	65.00	0.0355015
2120.00	64.67	0.0358466
2140.00	64.33	0.0363194
2160.00	64.00	0.0370186
2180.00	63.67	0.0445753
2200.00	63.34	0.0486503
2220.00	63.00	0.0483091
2240.00	62.67	0.0472398
2260.00	62.34	0.0457723
2280.00	62.00	0.0448147
2300.00	61.67	0.0445043
2320.00	61.34	0.0436375
2340.00	61.00	0.0428194
2360.00	60.67	0.0421703
2380.00	60.34	0.0415807
2400.00	60.00	0.0414762
2420.00	59.67	0.0414250
2440.00	59.34	0.0541566
2460.00	59.01	0.0462606
2480.00	58.67	0.0490982
2500.00	58.34	0.0475474
2520.00	58.00	0.0455022
2540.00	57.67	0.0479022
2560.00	57.34	0.0453025
2580.00	57.00	0.0401670
2600.00	56.67	0.0373977
2620.00	56.33	0.0358564
2640.00	56.00	0.0349943
2660.00	55.67	0.0343706
2680.00	55.33	0.0339291
2700.00	55.00	0.0335522
2720.00	54.67	0.0332329
2740.00	54.33	0.0329637
2760.00	54.00	0.0326496
2780.00	53.67	0.0324571
2800.00	53.33	0.0322314
2820.00	53.00	0.0320335
2840.00	52.67	0.0319647
2860.00	52.33	0.0318187
2880.00	52.00	0.0316320
2900.00	51.67	0.0315387
2920.00	51.33	0.0313749
2940.00	51.00	0.0312839
2960.00	50.67	0.0311154
2980.00	50.33	0.0309945
3000.00	50.00	0.0308822
3020.00	49.67	0.0307873
3040.00	49.33	0.0307213
3060.00	49.00	0.0305608
3080.00	48.66	0.0305029
3100.00	48.33	0.0304296
3120.00	48.00	0.0303483
3140.00	47.67	0.0302864
3160.00	47.33	0.0303314
3180.00	47.00	0.0300790
3200.00	46.67	0.0299505
3220.00	46.33	0.0298299
3240.00	46.00	0.0297868
3260.00	45.67	0.0296624
3280.00	45.33	0.0296318
3300.00	45.00	0.0295504
3320.00	44.67	0.0294856
3340.00	44.33	0.0293899
3360.00	44.00	0.0293172
3380.00	43.67	0.0293037
3400.00	43.33	0.0292176
3420.00	43.00	0.0291528
3440.00	42.67	0.0290907
3460.00	42.33	0.0289963
3480.00	42.00	0.0289127
3500.00	41.67	0.0288165
3520.00	41.33	0.0287713
3540.00	41.00	0.0286824
3560.00	40.67	0.0285901
3580.00	40.33	0.0285754
3600.00	40.00	0.0284894
3620.00	39.67	0.0283916
3640.00	39.33	0.0283643
3660.00	39.00	0.0282864
3680.00	38.67	0.0282138
3700.00	38.33	0.0281479
3720.00	38.00	0.0281037
3740.00	37.66	0.0281133
3760.00	37.33	0.0280568
3780.00	37.00	0.0279718
3800.00	36.67	0.0278669
3820.00	36.33	0.0278207
3840.00	36.00	0.0277529
3860.00	35.67	0.0276796
3880.00	35.33	0.0276184
3900.00	35.00	0.0276044
3920.00	34.67	0.0275169
3940.00	34.33	0.0274502
3960.00	34.00	0.0274202
3980.00	33.67	0.0273400
4000.00	33.33	0.0272922
4020.00	33.00	0.0272361
4040.00	32.67	0.0271255
4060.00	32.33	0.0270660
4080.00	32.00	0.0270079
4100.00	31.67	0.0269866
4120.00	31.33	0.0269570
4140.00	31.00	0.0268696
4160.00	30.67	0.0268485
4180.00	30.33	0.0268822
4200.00	30.00	0.0272735
4220.00	29.83	0.192412
4240.00	29.78	0.900302
4260.00	29.48	0.918609
4280.00	29.24	1.30925
4300.00	28.36	0.103900
4320.00	28.00	0.0319697
4340.00	27.67	0.0272350
4360.00	27.33	0.0250514
4380.00	27.00	0.0240791
4400.00	26.66	0.0234746
4420.00	26.33	0.0229947
4440.00	26.00	0.0227029
4460.00	25.67	0.0224645
4480.00	25.33	0.0222663
4500.00	25.00	0.0221255
4520.00	24.66	0.0218730
4540.00	24.33	0.0216555
4560.00	24.00	0.0215219
4580.00	23.66	0.0213946
4600.00	23.33	0.0212799
4620.00	23.00	0.0211360
4640.00	22.66	0.0210220
4660.00	22.33	0.0209253
4680.00	22.00	0.0208105
4700.00	21.66	0.0207168
4720.00	21.33	0.0206000
4740.00	21.00	0.0204474
4760.00	20.66	0.0203800
4780.00	20.33	0.0203032
4800.00	20.00	0.0202092
4820.00	19.66	0.0201150
4840.00	19.33	0.0200810
4860.00	19.00	0.0199808
4880.00	18.66	0.0198799
4900.00	18.33	0.0197513
4920.00	18.00	0.0196964
4940.00	17.66	0.0196085
4960.00	17.33	0.0194904
4980.00	17.00	0.0194080
5000.00	16.66	0.0193332
5020.00	16.33	0.0192282
5040.00	16.00	0.0191664
5060.00	15.66	0.0190810
5080.00	15.33	0.0189595
5100.00	15.00	0.0188870
5120.00	14.66	0.0187755
5140.00	14.33	0.0186560
5160.00	14.00	0.0186263
5180.00	13.66	0.0185852
5200.00	13.33	0.0185174
5220.00	13.00	0.0184228
5240.00	12.66	0.0183018
5260.00	12.33	0.0182478
5280.00	12.00	0.0181408
5300.00	11.66	0.0180783
5320.00	11.33	0.0179702
5340.00	11.00	0.0178827
5360.00	10.66	0.0178325
5380.00	10.33	0.0177967
5400.00	10.00	0.0176447
5420.00	9.66	0.0176283
5440.00	9.33	0.0175270
5460.00	9.00	0.0173832
5480.00	8.66	0.0172605
5500.00	8.33	0.0171789
5520.00	8.00	0.0171432
5540.00	7.66	0.0170536
5560.00	7.33	0.0169570
5580.00	7.00	0.0168484
5600.00	6.66	0.0168040
5620.00	6.33	0.0167505
5640.00	6.00	0.0167237
5660.00	5.66	0.0166356
5680.00	5.33	0.0165759
5700.00	5.00	0.0164857
5720.00	4.66	0.0164082
5740.00	4.33	0.0163284
5760.00	4.00	0.0162915
5780.00	3.67	0.0162136
5800.00	3.33	0.0161454
5820.00	3.00	0.0161334
5840.00	2.66	0.0160771
5860.00	2.33	0.0160403
5880.00	2.00	0.0159622
5900.00	1.66	0.0159524
5920.00	1.33	0.0158702
5940.00	1.00	0.0158458
5960.00	0.66	0.0157261
5980.00	0.33	0.0157535
5999.90	0.00	0.0157701

File: 8OCB SqA wt fraction 183.txt
Filename	8OCBSA183
Instrument name	DSC2A-00101 (192.168.10.4)
Operator	Yuma
rundate	5/30/2021
Sample name	8OCBSA183
proceduresegments	Data Off ; Equilibrate 150.00 °C; Isothermal 10.0 min; Equilibrate 100.00 °C; Isothermal 5.0 min; Data On ; Ramp 1.00 °C/min to 0.00 °C; Ramp 5.00 °C/min to 150.00 °C; Data Off ; Isothermal 10.0 min; Modulate Temperature 1.00 °C for 60.0 s; Equilibrate 100.00 °C; Isothermal 10.0 min; Data On ; Ramp 1.00 °C/min to 0.00 °C; Ramp 3.00 °C/min to 100.00 °C; Jump 30.00 °C
[step]
Ramp 1.00 °C/min to 0.00 °C
Time	Temperature	Heat Flow (Normalized)
s	°C	W/g
0.00000	99.84	9.87072e-4
20.1000	99.65	0.0185525
40.2000	99.32	0.0290730
60.3000	98.99	0.0315178
80.4000	98.65	0.0322521
100.500	98.32	0.0324084
120.600	97.98	0.0324919
140.700	97.65	0.0324350
160.800	97.31	0.0324650
180.900	96.98	0.0324734
201.000	96.64	0.0323947
221.100	96.31	0.0323636
241.200	95.97	0.0323150
261.300	95.64	0.0323227
281.400	95.31	0.0322910
301.500	94.97	0.0322976
321.600	94.63	0.0322695
341.700	94.30	0.0322637
361.800	93.97	0.0321715
381.900	93.63	0.0321125
402.000	93.29	0.0321095
422.100	92.96	0.0320904
442.200	92.63	0.0320736
462.300	92.29	0.0320191
482.400	91.96	0.0320176
502.500	91.62	0.0319473
522.600	91.29	0.0319557
542.700	90.95	0.0319733
562.800	90.62	0.0319584
582.900	90.28	0.0318756
603.000	89.95	0.0319228
623.100	89.61	0.0319155
643.200	89.28	0.0318788
663.300	88.94	0.0318449
683.400	88.61	0.0318090
703.500	88.27	0.0317228
723.600	87.94	0.0316867
743.700	87.60	0.0316520
763.800	87.27	0.0316697
783.900	86.93	0.0317015
804.000	86.60	0.0316166
824.100	86.26	0.0316290
844.200	85.93	0.0315392
864.300	85.59	0.0316082
884.400	85.26	0.0315591
904.500	84.92	0.0315101
924.600	84.59	0.0315090
944.700	84.25	0.0314838
964.800	83.92	0.0313524
984.900	83.58	0.0314058
1005.00	83.25	0.0313636
1025.10	82.91	0.0313855
1045.20	82.58	0.0314107
1065.30	82.24	0.0313378
1085.40	81.91	0.0313206
1105.50	81.57	0.0313796
1125.60	81.24	0.0313731
1145.70	80.90	0.0313244
1165.80	80.57	0.0312709
1185.90	80.23	0.0313223
1206.00	79.90	0.0313689
1226.10	79.56	0.0313516
1246.20	79.23	0.0312190
1266.30	78.89	0.0312160
1286.40	78.56	0.0311967
1306.50	78.22	0.0311518
1326.60	77.89	0.0311803
1346.70	77.55	0.0311761
1366.80	77.22	0.0311331
1386.90	76.88	0.0311381
1407.00	76.55	0.0311620
1427.10	76.21	0.0311327
1447.20	75.88	0.0311815
1467.30	75.54	0.0311525
1487.40	75.21	0.0311308
1507.50	74.87	0.0311971
1527.60	74.54	0.0311973
1547.70	74.20	0.0311698
1567.80	73.87	0.0311433
1587.90	73.53	0.0311397
1608.00	73.20	0.0311747
1628.10	72.86	0.0312268
1648.20	72.53	0.0311634
1668.30	72.19	0.0311057
1688.40	71.86	0.0312266
1708.50	71.52	0.0312302
1728.60	71.19	0.0311576
1748.70	70.85	0.0312398
1768.80	70.52	0.0312272
1788.90	70.18	0.0311956
1809.00	69.85	0.0312218
1829.10	69.51	0.0313069
1849.20	69.18	0.0313117
1869.30	68.85	0.0313739
1889.40	68.51	0.0313503
1909.50	68.17	0.0314257
1929.60	67.84	0.0314744
1949.70	67.51	0.0314960
1969.80	67.17	0.0314403
1989.90	66.83	0.0315813
2010.00	66.50	0.0316291
2030.10	66.16	0.0317217
2050.20	65.83	0.0317814
2070.30	65.49	0.0318275
2090.40	65.16	0.0319418
2110.50	64.83	0.0319819
2130.60	64.49	0.0320783
2150.70	64.16	0.0321667
2170.80	63.82	0.0323084
2190.90	63.49	0.0324437
2211.00	63.15	0.0325947
2231.10	62.82	0.0327869
2251.20	62.48	0.0329738
2271.30	62.15	0.0331943
2291.40	61.81	0.0334386
2311.50	61.48	0.0336109
2331.60	61.14	0.0340303
2351.70	60.81	0.0344196
2371.80	60.47	0.0349531
2391.90	60.14	0.0360305
2412.00	59.82	0.0604562
2432.10	59.52	0.115209
2452.20	59.16	0.0910261
2472.30	58.81	0.0589726
2492.40	58.47	0.0473769
2512.50	58.13	0.0437760
2532.60	57.80	0.0430725
2552.70	57.46	0.0449956
2572.80	57.12	0.0399425
2592.90	56.79	0.0363667
2613.00	56.45	0.0344690
2633.10	56.12	0.0334347
2653.20	55.78	0.0328270
2673.30	55.45	0.0323128
2693.40	55.11	0.0319105
2713.50	54.78	0.0316259
2733.60	54.44	0.0313270
2753.70	54.11	0.0310887
2773.80	53.77	0.0309308
2793.90	53.44	0.0306283
2814.00	53.10	0.0304796
2834.10	52.77	0.0302956
2854.20	52.43	0.0301792
2874.30	52.10	0.0300395
2894.40	51.76	0.0299024
2914.50	51.43	0.0297520
2934.60	51.09	0.0296657
2954.70	50.76	0.0294889
2974.80	50.42	0.0293752
2994.90	50.09	0.0292247
3015.00	49.75	0.0291004
3035.10	49.42	0.0289669
3055.20	49.08	0.0289306
3075.30	48.75	0.0287939
3095.40	48.41	0.0287233
3115.50	48.08	0.0285868
3135.60	47.74	0.0285325
3155.70	47.41	0.0285382
3175.80	47.07	0.0284539
3195.90	46.74	0.0282501
3216.00	46.40	0.0282382
3236.10	46.07	0.0282437
3256.20	45.73	0.0281749
3276.30	45.40	0.0280588
3296.40	45.06	0.0279200
3316.50	44.73	0.0278296
3336.60	44.39	0.0278320
3356.70	44.06	0.0277641
3376.80	43.72	0.0276689
3396.90	43.39	0.0276153
3417.00	43.05	0.0274958
3437.10	42.71	0.0274672
3457.20	42.38	0.0273838
3477.30	42.05	0.0273595
3497.40	41.71	0.0272505
3517.50	41.38	0.0271747
3537.60	41.04	0.0271126
3557.70	40.71	0.0271207
3577.80	40.37	0.0270116
3597.90	40.03	0.0269418
3618.00	39.70	0.0268734
3638.10	39.37	0.0268380
3658.20	39.03	0.0267809
3678.30	38.69	0.0267254
3698.40	38.36	0.0266785
3718.50	38.02	0.0266102
3738.60	37.69	0.0264790
3758.70	37.35	0.0264479
3778.80	37.02	0.0264673
3798.90	36.69	0.0263655
3819.00	36.35	0.0263473
3839.10	36.02	0.0262573
3859.20	35.68	0.0261647
3879.30	35.35	0.0261248
3899.40	35.01	0.0260864
3919.50	34.68	0.0260326
3939.60	34.34	0.0259615
3959.70	34.01	0.0259302
3979.80	33.67	0.0258646
3999.90	33.34	0.0258148
4020.00	33.00	0.0257809
4040.10	32.66	0.0256673
4060.20	32.33	0.0256176
4080.30	32.00	0.0255596
4100.40	31.66	0.0255005
4120.50	31.33	0.0254683
4140.60	30.99	0.0254407
4160.70	30.66	0.0253674
4180.80	30.32	0.0252786
4200.90	29.99	0.0252379
4221.00	29.65	0.0252115
4241.10	29.32	0.0251615
4261.20	28.98	0.0251028
4281.30	28.65	0.0250814
4301.40	28.31	0.0250871
4321.50	27.98	0.0249353
4341.60	27.64	0.0248803
4361.70	27.31	0.0248458
4381.80	26.97	0.0248397
4401.90	26.64	0.0248041
4422.00	26.30	0.0247733
4442.10	25.97	0.0246918
4462.20	25.63	0.0246893
4482.30	25.30	0.0246287
4502.40	24.96	0.0246248
4522.50	24.63	0.0245510
4542.60	24.29	0.0244783
4562.70	23.96	0.0244074
4582.80	23.62	0.0243011
4602.90	23.29	0.0117015
4623.00	23.38	0.755640
4643.10	23.22	1.02290
4663.20	22.89	1.31497
4683.30	21.99	0.109849
4703.40	21.62	0.0371673
4723.50	21.28	0.0314867
4743.60	20.94	0.0287897
4763.70	20.61	0.0271741
4783.80	20.27	0.0261590
4803.90	19.94	0.0253849
4824.00	19.60	0.0246996
4844.10	19.27	0.0241652
4864.20	18.93	0.0237255
4884.30	18.60	0.0233219
4904.40	18.26	0.0229370
4924.50	17.93	0.0225799
4944.60	17.59	0.0221552
4964.70	17.26	0.0217940
4984.80	16.92	0.0215464
5004.90	16.58	0.0213186
5025.00	16.25	0.0210841
5045.10	15.92	0.0208520
5065.20	15.58	0.0206935
5085.30	15.25	0.0204282
5105.40	14.91	0.0202244
5125.50	14.58	0.0200425
5145.60	14.24	0.0198623
5165.70	13.90	0.0196256
5185.80	13.57	0.0195031
5205.90	13.23	0.0193521
5226.00	12.90	0.0191566
5246.10	12.56	0.0190011
5266.20	12.23	0.0189178
5286.30	11.89	0.0187727
5306.40	11.56	0.0185683
5326.50	11.22	0.0184521
5346.60	10.89	0.0183527
5366.70	10.55	0.0181952
5386.80	10.22	0.0180591
5406.90	9.88	0.0179035
5427.00	9.55	0.0177635
5447.10	9.21	0.0176500
5467.20	8.88	0.0176100
5487.30	8.54	0.0174830
5507.40	8.21	0.0173709
5527.50	7.87	0.0172393
5547.60	7.54	0.0170826
5567.70	7.20	0.0169950
5587.80	6.87	0.0168931
5607.90	6.53	0.0167647
5628.00	6.20	0.0167649
5648.10	5.86	0.0167171
5668.20	5.53	0.0165821
5688.30	5.19	0.0164685
5708.40	4.86	0.0164223
5728.50	4.52	0.0163674
5748.60	4.19	0.0163133
5768.70	3.86	0.0161808
5788.80	3.52	0.0160912
5808.90	3.18	0.0160683
5829.00	2.85	0.0160254
5849.10	2.51	0.0160486
5869.20	2.18	0.0159696
5889.30	1.84	0.0159047
5909.40	1.51	0.0157763
5929.50	1.17	0.0157352
5949.60	0.84	0.0157032
5969.70	0.51	0.0155974
5989.80	0.17	0.0155821
6000.00	0.00	0.0156131

File: 8OCB SqA wt fraction 250.txt
Filename	8OCBSA250
Instrument name	DSC2A-00101 (192.168.10.4)
Operator	Yuma
rundate	5/28/2021
Sample name	8OCBSA250
proceduresegments	Data Off ; Equilibrate 150.00 °C; Isothermal 10.0 min; Equilibrate 100.00 °C; Isothermal 5.0 min; Data On ; Ramp 1.00 °C/min to 0.00 °C; Ramp 5.00 °C/min to 150.00 °C; Data Off ; Isothermal 10.0 min; Modulate Temperature 1.00 °C for 60.0 s; Equilibrate 100.00 °C; Isothermal 10.0 min; Data On ; Ramp 1.00 °C/min to 0.00 °C; Ramp 3.00 °C/min to 100.00 °C; Jump 30.00 °C
[step]
Ramp 1.00 °C/min to 0.00 °C
Time	Temperature	Heat Flow (Normalized)
s	°C	W/g
0.00000	99.84	4.25361e-3
20.0000	99.65	0.0219908
40.0000	99.33	0.0329094
60.0000	99.00	0.0352302
80.0000	98.67	0.0360300
100.000	98.33	0.0362194
120.000	98.00	0.0362569
140.000	97.67	0.0362905
160.000	97.34	0.0361394
180.000	97.00	0.0361887
200.000	96.67	0.0361740
220.000	96.34	0.0361047
240.000	96.00	0.0360343
260.000	95.67	0.0360527
280.000	95.33	0.0360200
300.000	95.00	0.0359657
320.000	94.67	0.0359901
340.000	94.33	0.0359358
360.000	94.00	0.0359132
380.000	93.67	0.0358758
400.000	93.33	0.0358911
420.000	93.00	0.0357948
440.000	92.67	0.0357857
460.000	92.34	0.0356862
480.000	92.00	0.0358088
500.000	91.67	0.0357357
520.000	91.34	0.0356912
540.000	91.00	0.0356525
560.000	90.67	0.0356555
580.000	90.34	0.0355066
600.000	90.00	0.0354671
620.000	89.67	0.0355299
640.000	89.34	0.0355190
660.000	89.00	0.0355224
680.000	88.67	0.0354462
700.000	88.33	0.0353698
720.000	88.00	0.0354308
740.000	87.67	0.0353402
760.000	87.34	0.0353362
780.000	87.00	0.0353426
800.000	86.67	0.0352622
820.000	86.34	0.0352400
840.000	86.00	0.0352538
860.000	85.67	0.0351357
880.000	85.34	0.0351164
900.000	85.00	0.0351579
920.000	84.67	0.0351162
940.000	84.34	0.0350439
960.000	84.00	0.0350221
980.000	83.67	0.0349371
1000.00	83.34	0.0349647
1020.00	83.00	0.0349752
1040.00	82.67	0.0349606
1060.00	82.34	0.0349026
1080.00	82.00	0.0349299
1100.00	81.67	0.0349146
1120.00	81.34	0.0348759
1140.00	81.00	0.0348913
1160.00	80.67	0.0348867
1180.00	80.34	0.0348470
1200.00	80.00	0.0348217
1220.00	79.67	0.0347932
1240.00	79.34	0.0348103
1260.00	79.01	0.0347469
1280.00	78.67	0.0347015
1300.00	78.34	0.0346654
1320.00	78.00	0.0347543
1340.00	77.67	0.0346829
1360.00	77.34	0.0346834
1380.00	77.00	0.0347399
1400.00	76.67	0.0346146
1420.00	76.34	0.0346034
1440.00	76.00	0.0346299
1460.00	75.67	0.0346205
1480.00	75.34	0.0345797
1500.00	75.01	0.0345707
1520.00	74.67	0.0345802
1540.00	74.34	0.0345690
1560.00	74.01	0.0345869
1580.00	73.67	0.0345670
1600.00	73.34	0.0345756
1620.00	73.01	0.0345352
1640.00	72.67	0.0345783
1660.00	72.34	0.0345451
1680.00	72.01	0.0345817
1700.00	71.67	0.0346037
1720.00	71.34	0.0345869
1740.00	71.01	0.0345606
1760.00	70.67	0.0345598
1780.00	70.34	0.0345743
1800.00	70.01	0.0346533
1820.00	69.67	0.0346576
1840.00	69.34	0.0346787
1860.00	69.01	0.0346914
1880.00	68.67	0.0347003
1900.00	68.34	0.0347068
1920.00	68.01	0.0347525
1940.00	67.67	0.0347747
1960.00	67.34	0.0348042
1980.00	67.01	0.0349008
2000.00	66.67	0.0348839
2020.00	66.34	0.0349087
2040.00	66.01	0.0350055
2060.00	65.68	0.0350545
2080.00	65.34	0.0351906
2100.00	65.01	0.0352475
2120.00	64.67	0.0352660
2140.00	64.34	0.0354273
2160.00	64.01	0.0355244
2180.00	63.67	0.0355874
2200.00	63.34	0.0357396
2220.00	63.01	0.0358816
2240.00	62.68	0.0360376
2260.00	62.34	0.0362702
2280.00	62.01	0.0364614
2300.00	61.68	0.0366796
2320.00	61.34	0.0370821
2340.00	61.01	0.0385053
2360.00	60.68	0.0397027
2380.00	60.35	0.0404528
2400.00	60.01	0.0412830
2420.00	59.68	0.0425432
2440.00	59.43	0.138072
2460.00	59.06	0.125485
2480.00	58.69	0.0627523
2500.00	58.35	0.0513691
2520.00	58.02	0.0478406
2540.00	57.69	0.0473958
2560.00	57.35	0.0468438
2580.00	57.01	0.0421674
2600.00	56.68	0.0394400
2620.00	56.34	0.0380304
2640.00	56.01	0.0371742
2660.00	55.68	0.0365344
2680.00	55.34	0.0360600
2700.00	55.01	0.0356966
2720.00	54.68	0.0354014
2740.00	54.34	0.0350490
2760.00	54.01	0.0347921
2780.00	53.68	0.0346548
2800.00	53.34	0.0344358
2820.00	53.01	0.0342237
2840.00	52.67	0.0340597
2860.00	52.34	0.0338713
2880.00	52.01	0.0337075
2900.00	51.68	0.0335926
2920.00	51.34	0.0334201
2940.00	51.01	0.0333239
2960.00	50.68	0.0331760
2980.00	50.34	0.0330819
3000.00	50.01	0.0329623
3020.00	49.68	0.0328702
3040.00	49.34	0.0327596
3060.00	49.01	0.0326241
3080.00	48.68	0.0325371
3100.00	48.34	0.0325035
3120.00	48.01	0.0323048
3140.00	47.68	0.0322848
3160.00	47.34	0.0322986
3180.00	47.01	0.0322076
3200.00	46.68	0.0320342
3220.00	46.34	0.0319017
3240.00	46.01	0.0319476
3260.00	45.68	0.0318965
3280.00	45.34	0.0317732
3300.00	45.01	0.0316647
3320.00	44.68	0.0315534
3340.00	44.34	0.0314652
3360.00	44.01	0.0314313
3380.00	43.68	0.0313915
3400.00	43.34	0.0313512
3420.00	43.01	0.0312547
3440.00	42.68	0.0311421
3460.00	42.34	0.0310617
3480.00	42.01	0.0310339
3500.00	41.68	0.0310009
3520.00	41.34	0.0308943
3540.00	41.01	0.0308754
3560.00	40.68	0.0307986
3580.00	40.34	0.0307593
3600.00	40.01	0.0307252
3620.00	39.68	0.0306190
3640.00	39.34	0.0305533
3660.00	39.01	0.0304860
3680.00	38.68	0.0304116
3700.00	38.34	0.0303580
3720.00	38.01	0.0303267
3740.00	37.68	0.0302204
3760.00	37.34	0.0301778
3780.00	37.01	0.0301644
3800.00	36.68	0.0300509
3820.00	36.34	0.0300074
3840.00	36.01	0.0299433
3860.00	35.68	0.0298771
3880.00	35.34	0.0298454
3900.00	35.01	0.0298049
3920.00	34.68	0.0297393
3940.00	34.34	0.0296698
3960.00	34.01	0.0296014
3980.00	33.68	0.0296228
4000.00	33.34	0.0295943
4020.00	33.01	0.0295193
4040.00	32.68	0.0294284
4060.00	32.34	0.0293760
4080.00	32.01	0.0293426
4100.00	31.68	0.0293003
4120.00	31.34	0.0292205
4140.00	31.01	0.0292326
4160.00	30.68	0.0291952
4180.00	30.34	0.0291260
4200.00	30.01	0.0290002
4220.00	29.68	0.0289652
4240.00	29.34	0.0289532
4260.00	29.01	0.0289004
4280.00	28.68	0.0288130
4300.00	28.34	0.0288004
4320.00	28.01	0.0287572
4340.00	27.68	0.0287381
4360.00	27.34	0.0286926
4380.00	27.01	0.0286289
4400.00	26.68	0.0285792
4420.00	26.34	0.0285165
4440.00	26.01	0.0284421
4460.00	25.68	0.0287083
4480.00	25.34	0.0291694
4500.00	25.01	0.0292059
4520.00	24.76	0.0770097
4540.00	24.96	0.819702
4560.00	24.67	0.888545
4580.00	24.39	0.908351
4600.00	23.45	0.191150
4620.00	23.02	0.0439542
4640.00	22.68	0.0332526
4660.00	22.34	0.0308598
4680.00	22.01	0.0295540
4700.00	21.68	0.0287753
4720.00	21.34	0.0282564
4740.00	21.01	0.0277603
4760.00	20.68	0.0273591
4780.00	20.34	0.0270028
4800.00	20.01	0.0266319
4820.00	19.68	0.0263777
4840.00	19.34	0.0260905
4860.00	19.01	0.0259167
4880.00	18.67	0.0256441
4900.00	18.34	0.0253313
4920.00	18.01	0.0251378
4940.00	17.67	0.0249143
4960.00	17.34	0.0247082
4980.00	17.01	0.0245444
5000.00	16.68	0.0243555
5020.00	16.34	0.0241850
5040.00	16.01	0.0240000
5060.00	15.67	0.0238577
5080.00	15.34	0.0237142
5100.00	15.01	0.0235680
5120.00	14.68	0.0234288
5140.00	14.34	0.0232482
5160.00	14.01	0.0231483
5180.00	13.67	0.0230644
5200.00	13.34	0.0229573
5220.00	13.01	0.0228218
5240.00	12.67	0.0226976
5260.00	12.34	0.0226303
5280.00	12.01	0.0224835
5300.00	11.67	0.0223903
5320.00	11.34	0.0222779
5340.00	11.01	0.0221490
5360.00	10.67	0.0220616
5380.00	10.34	0.0219472
5400.00	10.01	0.0218756
5420.00	9.67	0.0217881
5440.00	9.34	0.0216673
5460.00	9.01	0.0215774
5480.00	8.67	0.0214690
5500.00	8.34	0.0214063
5520.00	8.01	0.0213236
5540.00	7.67	0.0212004
5560.00	7.34	0.0211299
5580.00	7.01	0.0210225
5600.00	6.67	0.0209549
5620.00	6.34	0.0208284
5640.00	6.01	0.0207419
5660.00	5.67	0.0206859
5680.00	5.34	0.0206277
5700.00	5.01	0.0205750
5720.00	4.67	0.0204542
5740.00	4.34	0.0204188
5760.00	4.01	0.0203981
5780.00	3.67	0.0203074
5800.00	3.34	0.0202367
5820.00	3.01	0.0201473
5840.00	2.67	0.0200921
5860.00	2.34	0.0200438
5880.00	2.01	0.0200175
5900.00	1.67	0.0199328
5920.00	1.34	0.0198409
5940.00	1.01	0.0198177
5960.00	0.67	0.0197928
5980.00	0.34	0.0197909
5999.90	0.01	0.0197094