Folder: StructuralDiversity/Differential scanning calorimetry/8OCB Squalane

Note: README.md
# StructuralDiversity
Raw data for manuscript "Structural diversity encountered during liquid-liquid crystal phase separation"

File: 8OCB SqA  wt fraction  000.txt
Filename	8OCBSA000
Instrument name	DSC2A-00101 (192.168.10.4)
Operator	Yuma
rundate	5/27/2021
Sample name	8OCBSA000
proceduresegments	Data Off ; Equilibrate 150.00 °C; Isothermal 10.0 min; Equilibrate 100.00 °C; Isothermal 5.0 min; Data On ; Ramp 1.00 °C/min to 0.00 °C; Ramp 5.00 °C/min to 150.00 °C; Data Off ; Isothermal 10.0 min; Modulate Temperature 1.00 °C for 60.0 s; Equilibrate 100.00 °C; Isothermal 10.0 min; Data On ; Ramp 1.00 °C/min to 0.00 °C; Ramp 3.00 °C/min to 100.00 °C; Jump 30.00 °C
[step]
Ramp 1.00 °C/min to 0.00 °C
Time	Temperature	Heat Flow (Normalized)
s	°C	W/g
0.00000	99.84	1.42665e-3
20.1000	99.65	0.0142394
40.2000	99.32	0.0243846
60.3000	98.99	0.0273618
80.4000	98.65	0.0281107
100.500	98.31	0.0283361
120.600	97.98	0.0281728
140.700	97.65	0.0282564
160.800	97.31	0.0282408
180.900	96.98	0.0281729
201.000	96.64	0.0280831
221.100	96.31	0.0280270
241.200	95.97	0.0281461
261.300	95.64	0.0280635
281.400	95.30	0.0279999
301.500	94.97	0.0279852
321.600	94.63	0.0278314
341.700	94.30	0.0278558
361.800	93.96	0.0277964
381.900	93.63	0.0277144
402.000	93.29	0.0277221
422.100	92.96	0.0277256
442.200	92.62	0.0276957
462.300	92.29	0.0276844
482.400	91.95	0.0276998
502.500	91.62	0.0276226
522.600	91.28	0.0275698
542.700	90.95	0.0275306
562.800	90.61	0.0275587
582.900	90.28	0.0275394
603.000	89.94	0.0276234
623.100	89.61	0.0275006
643.200	89.27	0.0274326
663.300	88.94	0.0274984
683.400	88.60	0.0274237
703.500	88.27	0.0273977
723.600	87.93	0.0273286
743.700	87.60	0.0273708
763.800	87.26	0.0273779
783.900	86.93	0.0272758
804.000	86.59	0.0272246
824.100	86.26	0.0272121
844.200	85.92	0.0272532
864.300	85.59	0.0272671
884.400	85.25	0.0272764
904.500	84.92	0.0273262
924.600	84.58	0.0273290
944.700	84.25	0.0273718
964.800	83.91	0.0273497
984.900	83.58	0.0273162
1005.00	83.24	0.0273577
1025.10	82.91	0.0273417
1045.20	82.57	0.0275413
1065.30	82.24	0.0276220
1085.40	81.90	0.0276710
1105.50	81.57	0.0278290
1125.60	81.23	0.0279665
1145.70	80.90	0.0281349
1165.80	80.56	0.0283852
1185.90	80.23	0.0286940
1206.00	79.90	0.0292149
1226.10	79.56	0.0302742
1246.20	79.26	0.145335
1266.30	78.89	0.0500222
1286.40	78.56	0.0419239
1306.50	78.22	0.0377402
1326.60	77.89	0.0353786
1346.70	77.55	0.0339185
1366.80	77.22	0.0329162
1386.90	76.88	0.0321196
1407.00	76.54	0.0314644
1427.10	76.21	0.0309318
1447.20	75.87	0.0304648
1467.30	75.54	0.0300970
1487.40	75.21	0.0297448
1507.50	74.87	0.0293868
1527.60	74.54	0.0291436
1547.70	74.20	0.0288804
1567.80	73.87	0.0286667
1587.90	73.53	0.0283895
1608.00	73.20	0.0282228
1628.10	72.86	0.0280184
1648.20	72.52	0.0278218
1668.30	72.19	0.0276200
1688.40	71.85	0.0274329
1708.50	71.52	0.0272054
1728.60	71.18	0.0270067
1748.70	70.85	0.0269231
1768.80	70.52	0.0268103
1788.90	70.18	0.0266881
1809.00	69.84	0.0265259
1829.10	69.51	0.0264548
1849.20	69.17	0.0262913
1869.30	68.84	0.0261530
1889.40	68.50	0.0261149
1909.50	68.17	0.0259969
1929.60	67.83	0.0259440
1949.70	67.50	0.0258739
1969.80	67.17	0.0258824
1989.90	66.83	0.0259467
2010.00	66.50	0.0261479
2030.10	66.16	0.0268585
2050.20	65.82	0.0275023
2070.30	65.49	0.0263966
2090.40	65.15	0.0257636
2110.50	64.82	0.0252845
2130.60	64.48	0.0249043
2150.70	64.15	0.0245794
2170.80	63.81	0.0242807
2190.90	63.48	0.0240770
2211.00	63.14	0.0239204
2231.10	62.81	0.0238001
2251.20	62.47	0.0236250
2271.30	62.14	0.0234283
2291.40	61.80	0.0232434
2311.50	61.47	0.0231534
2331.60	61.13	0.0231029
2351.70	60.80	0.0229508
2371.80	60.47	0.0228057
2391.90	60.13	0.0227741
2412.00	59.79	0.0226364
2432.10	59.46	0.0225346
2452.20	59.12	0.0223903
2472.30	58.79	0.0223250
2492.40	58.45	0.0221868
2512.50	58.12	0.0220867
2532.60	57.78	0.0219464
2552.70	57.45	0.0218475
2572.80	57.11	0.0217306
2592.90	56.78	0.0216653
2613.00	56.44	0.0215646
2633.10	56.11	0.0214832
2653.20	55.77	0.0213963
2673.30	55.44	0.0213473
2693.40	55.10	0.0212049
2713.50	54.77	0.0210936
2733.60	54.43	0.0210169
2753.70	54.10	0.0209280
2773.80	53.76	0.0208126
2793.90	53.43	0.0207381
2814.00	53.10	0.0206736
2834.10	52.76	0.0205994
2854.20	52.42	0.0205697
2874.30	52.09	0.0204851
2894.40	51.75	0.0203763
2914.50	51.42	0.0202097
2934.60	51.08	0.0201522
2954.70	50.75	0.0200923
2974.80	50.42	0.0200444
2994.90	50.08	0.0199245
3015.00	49.74	0.0198491
3035.10	49.41	0.0197606
3055.20	49.07	0.0197136
3075.30	48.74	0.0196263
3095.40	48.41	0.0195672
3115.50	48.07	0.0194729
3135.60	47.74	0.0193904
3155.70	47.40	0.0193686
3175.80	47.06	0.0193185
3195.90	46.73	0.0191508
3216.00	46.40	0.0190654
3236.10	46.06	0.0190400
3256.20	45.72	0.0190293
3276.30	45.39	0.0189040
3296.40	45.05	0.0188225
3316.50	44.72	0.0187626
3336.60	44.38	0.0187286
3356.70	44.05	0.0186800
3376.80	43.72	0.0185433
3396.90	43.38	0.0184801
3417.00	43.04	0.0184693
3437.10	42.71	0.0184149
3457.20	42.37	0.0183391
3477.30	42.04	0.0182719
3497.40	41.71	0.0181336
3517.50	41.37	0.0180790
3537.60	41.03	0.0180374
3557.70	40.70	0.0179206
3577.80	40.36	0.0179177
3597.90	40.03	0.0178491
3618.00	39.69	0.0177594
3638.10	39.36	0.0176924
3658.20	39.02	0.0176040
3678.30	38.69	0.0175890
3698.40	38.35	0.0175231
3718.50	38.02	0.0174264
3738.60	37.69	0.0173596
3758.70	37.35	0.0173303
3778.80	37.01	0.0172346
3798.90	36.68	0.0171796
3819.00	36.35	0.0171187
3839.10	36.01	0.0169924
3859.20	35.67	0.0169379
3879.30	35.34	0.0169794
3899.40	35.00	0.0168188
3919.50	34.67	0.0167652
3939.60	34.34	0.0166920
3959.70	34.00	0.0166491
3979.80	33.66	0.0165946
3999.90	33.33	0.0164594
4020.00	32.99	0.0164922
4040.10	32.66	0.0164346
4060.20	32.32	0.0163121
4080.30	31.99	0.0162722
4100.40	31.66	0.0162232
4120.50	31.32	0.0161830
4140.60	30.98	0.0160902
4160.70	30.65	0.0160359
4180.80	30.31	0.0159224
4200.90	29.98	0.0158803
4221.00	29.64	0.0157799
4241.10	29.31	0.0157361
4261.20	28.97	0.0156472
4281.30	28.64	0.0155489
4301.40	28.31	0.0155283
4321.50	27.97	0.0155176
4341.60	27.63	0.0154379
4361.70	27.30	0.0153926
4381.80	26.97	0.0155522
4401.90	27.07	1.19994
4422.00	26.71	1.12335
4442.10	26.53	1.89512
4462.20	25.65	0.0988913
4482.30	25.29	0.0233443
4502.40	24.95	0.0183166
4522.50	24.62	0.0159849
4542.60	24.28	0.0150962
4562.70	23.95	0.0147242
4582.80	23.61	0.0145752
4602.90	23.28	0.0144551
4623.00	22.94	0.0144882
4643.10	22.61	0.0144013
4663.20	22.27	0.0143704
4683.30	21.94	0.0143109
4703.40	21.61	0.0142157
4723.50	21.27	0.0141328
4743.60	20.93	0.0140579
4763.70	20.60	0.0139427
4783.80	20.26	0.0137980
4803.90	19.93	0.0135760
4824.00	19.59	0.0133690
4844.10	19.26	0.0131917
4864.20	18.92	0.0129312
4884.30	18.59	0.0126997
4904.40	18.25	0.0124388
4924.50	17.92	0.0121641
4944.60	17.59	0.0119257
4964.70	17.25	0.0117318
4984.80	16.91	0.0114942
5004.90	16.58	0.0112160
5025.00	16.24	0.0109584
5045.10	15.91	0.0106783
5065.20	15.57	0.0104210
5085.30	15.24	0.0101345
5105.40	14.90	9.85018e-3
5125.50	14.57	9.65313e-3
5145.60	14.23	9.41547e-3
5165.70	13.90	9.17517e-3
5185.80	13.56	8.89293e-3
5205.90	13.23	8.66891e-3
5226.00	12.89	8.40357e-3
5246.10	12.56	8.17603e-3
5266.20	12.22	7.97662e-3
5286.30	11.89	7.83915e-3
5306.40	11.55	7.66189e-3
5326.50	11.22	7.45570e-3
5346.60	10.88	7.16088e-3
5366.70	10.55	6.94423e-3
5386.80	10.21	6.72112e-3
5406.90	9.88	6.48521e-3
5427.00	9.54	6.36451e-3
5447.10	9.21	6.21006e-3
5467.20	8.87	6.07233e-3
5487.30	8.54	5.85262e-3
5507.40	8.20	5.69458e-3
5527.50	7.87	5.57280e-3
5547.60	7.53	5.49547e-3
5567.70	7.20	5.36070e-3
5587.80	6.86	5.15856e-3
5607.90	6.53	4.98276e-3
5628.00	6.19	4.85967e-3
5648.10	5.86	4.72346e-3
5668.20	5.52	4.58527e-3
5688.30	5.19	4.51832e-3
5708.40	4.85	4.38713e-3
5728.50	4.52	4.29671e-3
5748.60	4.18	4.24000e-3
5768.70	3.85	4.08198e-3
5788.80	3.51	3.99147e-3
5808.90	3.18	3.96951e-3
5829.00	2.84	3.86802e-3
5849.10	2.51	3.72319e-3
5869.20	2.17	3.61425e-3
5889.30	1.84	3.55484e-3
5909.40	1.50	3.47348e-3
5929.50	1.17	3.41004e-3
5949.60	0.83	3.41431e-3
5969.70	0.50	3.28293e-3
5989.80	0.16	3.17032e-3
6000.00	-0.01	3.12384e-3

File: 8OCB SqA wt fraction 042.txt
Filename	8OCBSA042
Instrument name	DSC2A-00101 (192.168.10.4)
Operator	Yuma
rundate	5/28/2021
Sample name	8OCBSA042
proceduresegments	Data Off ; Equilibrate 150.00 °C; Isothermal 10.0 min; Equilibrate 100.00 °C; Isothermal 5.0 min; Data On ; Ramp 1.00 °C/min to 0.00 °C; Ramp 5.00 °C/min to 150.00 °C; Data Off ; Isothermal 10.0 min; Modulate Temperature 1.00 °C for 60.0 s; Equilibrate 100.00 °C; Isothermal 10.0 min; Data On ; Ramp 1.00 °C/min to 0.00 °C; Ramp 3.00 °C/min to 100.00 °C; Jump 30.00 °C
[step]
Ramp 1.00 °C/min to 0.00 °C
Time	Temperature	Heat Flow (Normalized)
s	°C	W/g
0.00000	99.84	2.03718e-3
20.0000	99.66	0.0176282
40.0000	99.35	0.0308819
60.0000	99.02	0.0329245
80.0000	98.69	0.0338225
100.000	98.35	0.0340486
120.000	98.02	0.0341554
140.000	97.69	0.0341599
160.000	97.35	0.0341680
180.000	97.02	0.0341900
200.000	96.69	0.0341728
220.000	96.35	0.0341794
240.000	96.02	0.0341386
260.000	95.69	0.0340910
280.000	95.35	0.0341148
300.000	95.02	0.0340915
320.000	94.69	0.0340807
340.000	94.36	0.0340483
360.000	94.02	0.0341124
380.000	93.69	0.0340489
400.000	93.35	0.0340434
420.000	93.02	0.0340143
440.000	92.69	0.0339921
460.000	92.36	0.0340145
480.000	92.02	0.0341865
500.000	91.69	0.0340169
520.000	91.35	0.0338919
540.000	91.02	0.0338703
560.000	90.69	0.0339012
580.000	90.36	0.0338967
600.000	90.02	0.0338646
620.000	89.69	0.0339080
640.000	89.36	0.0338980
660.000	89.02	0.0338889
680.000	88.69	0.0338833
700.000	88.36	0.0338527
720.000	88.02	0.0338378
740.000	87.69	0.0338307
760.000	87.36	0.0338557
780.000	87.02	0.0338612
800.000	86.69	0.0338963
820.000	86.36	0.0338688
840.000	86.02	0.0338115
860.000	85.69	0.0338740
880.000	85.36	0.0338761
900.000	85.02	0.0338641
920.000	84.69	0.0338833
940.000	84.36	0.0338393
960.000	84.02	0.0338608
980.000	83.69	0.0338932
1000.00	83.36	0.0339567
1020.00	83.02	0.0339777
1040.00	82.69	0.0339335
1060.00	82.36	0.0338850
1080.00	82.02	0.0339419
1100.00	81.69	0.0339945
1120.00	81.36	0.0339939
1140.00	81.03	0.0339367
1160.00	80.69	0.0339988
1180.00	80.36	0.0341113
1200.00	80.02	0.0340851
1220.00	79.69	0.0340555
1240.00	79.36	0.0340888
1260.00	79.02	0.0342026
1280.00	78.69	0.0342391
1300.00	78.36	0.0342749
1320.00	78.03	0.0342790
1340.00	77.69	0.0343327
1360.00	77.36	0.0343995
1380.00	77.03	0.0344727
1400.00	76.69	0.0345870
1420.00	76.36	0.0346671
1440.00	76.03	0.0347646
1460.00	75.69	0.0348557
1480.00	75.36	0.0350356
1500.00	75.03	0.0352893
1520.00	74.70	0.0356454
1540.00	74.37	0.0367462
1560.00	74.04	0.0413129
1580.00	73.71	0.0439197
1600.00	73.38	0.0450088
1620.00	73.04	0.0452469
1640.00	72.71	0.0451728
1660.00	72.38	0.0450995
1680.00	72.04	0.0454127
1700.00	71.71	0.0468955
1720.00	71.38	0.0470373
1740.00	71.04	0.0457332
1760.00	70.71	0.0440347
1780.00	70.37	0.0425462
1800.00	70.04	0.0413848
1820.00	69.70	0.0404483
1840.00	69.37	0.0396936
1860.00	69.03	0.0390015
1880.00	68.70	0.0384530
1900.00	68.37	0.0380366
1920.00	68.03	0.0377537
1940.00	67.70	0.0374072
1960.00	67.37	0.0371625
1980.00	67.03	0.0369759
2000.00	66.70	0.0367586
2020.00	66.37	0.0366278
2040.00	66.03	0.0364676
2060.00	65.70	0.0362686
2080.00	65.37	0.0361284
2100.00	65.03	0.0360614
2120.00	64.70	0.0359738
2140.00	64.37	0.0359104
2160.00	64.03	0.0358592
2180.00	63.70	0.0358741
2200.00	63.37	0.0360402
2220.00	63.03	0.0364295
2240.00	62.70	0.0368241
2260.00	62.37	0.0367460
2280.00	62.03	0.0365491
2300.00	61.70	0.0363604
2320.00	61.37	0.0360089
2340.00	61.03	0.0355649
2360.00	60.70	0.0349710
2380.00	60.36	0.0344660
2400.00	60.03	0.0340584
2420.00	59.70	0.0337515
2440.00	59.36	0.0335169
2460.00	59.03	0.0332577
2480.00	58.70	0.0330633
2500.00	58.36	0.0328824
2520.00	58.03	0.0327213
2540.00	57.70	0.0325875
2560.00	57.36	0.0324686
2580.00	57.03	0.0323162
2600.00	56.70	0.0322084
2620.00	56.36	0.0320846
2640.00	56.03	0.0319664
2660.00	55.69	0.0319493
2680.00	55.36	0.0318391
2700.00	55.03	0.0317440
2720.00	54.70	0.0315939
2740.00	54.36	0.0315692
2760.00	54.03	0.0314897
2780.00	53.70	0.0314124
2800.00	53.36	0.0313320
2820.00	53.03	0.0312756
2840.00	52.70	0.0311955
2860.00	52.36	0.0310788
2880.00	52.03	0.0310935
2900.00	51.69	0.0310415
2920.00	51.36	0.0309226
2940.00	51.03	0.0308650
2960.00	50.70	0.0307839
2980.00	50.36	0.0307369
3000.00	50.03	0.0306904
3020.00	49.69	0.0306297
3040.00	49.36	0.0306007
3060.00	49.03	0.0305417
3080.00	48.70	0.0304790
3100.00	48.36	0.0304201
3120.00	48.03	0.0303240
3140.00	47.70	0.0303227
3160.00	47.36	0.0303816
3180.00	47.03	0.0302408
3200.00	46.69	0.0301421
3220.00	46.36	0.0300943
3240.00	46.03	0.0300983
3260.00	45.70	0.0300206
3280.00	45.36	0.0300050
3300.00	45.03	0.0299100
3320.00	44.70	0.0298941
3340.00	44.36	0.0298638
3360.00	44.03	0.0298041
3380.00	43.70	0.0297683
3400.00	43.36	0.0297106
3420.00	43.03	0.0296929
3440.00	42.70	0.0296830
3460.00	42.36	0.0296152
3480.00	42.03	0.0295647
3500.00	41.70	0.0295287
3520.00	41.36	0.0294668
3540.00	41.03	0.0294760
3560.00	40.70	0.0294367
3580.00	40.36	0.0294084
3600.00	40.03	0.0293556
3620.00	39.69	0.0293102
3640.00	39.36	0.0293008
3660.00	39.03	0.0292361
3680.00	38.70	0.0292183
3700.00	38.36	0.0291867
3720.00	38.03	0.0291820
3740.00	37.70	0.0291363
3760.00	37.36	0.0290914
3780.00	37.03	0.0290415
3800.00	36.70	0.0290059
3820.00	36.36	0.0289732
3840.00	36.03	0.0289263
3860.00	35.70	0.0288867
3880.00	35.36	0.0288487
3900.00	35.03	0.0288365
3920.00	34.70	0.0288173
3940.00	34.36	0.0287765
3960.00	34.03	0.0287220
3980.00	33.70	0.0286953
4000.00	33.36	0.0286552
4020.00	33.03	0.0286877
4040.00	32.70	0.0286636
4060.00	32.36	0.0285706
4080.00	32.03	0.0285156
4100.00	31.70	0.0284784
4120.00	31.36	0.0284530
4140.00	31.03	0.0284354
4160.00	30.70	0.0284295
4180.00	30.36	0.0284011
4200.00	30.03	0.0283508
4220.00	29.70	0.0283325
4240.00	29.36	0.0283217
4260.00	29.03	0.0282995
4280.00	28.70	0.0282500
4300.00	28.36	0.0282102
4320.00	28.03	0.0281661
4340.00	27.70	0.0281381
4360.00	27.36	0.0282608
4380.00	27.03	0.0282967
4400.00	26.70	0.0283052
4420.00	26.37	0.0283541
4440.00	26.81	0.428750
4460.00	28.34	1.81506
4480.00	26.79	1.15419
4500.00	25.17	0.146181
4520.00	24.71	0.0378487
4540.00	24.36	0.0272155
4560.00	24.02	0.0253850
4580.00	23.69	0.0243701
4600.00	23.36	0.0238577
4620.00	23.02	0.0235528
4640.00	22.69	0.0232756
4660.00	22.36	0.0231291
4680.00	22.02	0.0229778
4700.00	21.69	0.0228139
4720.00	21.36	0.0226713
4740.00	21.02	0.0225722
4760.00	20.69	0.0224508
4780.00	20.36	0.0223509
4800.00	20.02	0.0222340
4820.00	19.69	0.0221471
4840.00	19.36	0.0220675
4860.00	19.02	0.0219838
4880.00	18.69	0.0219231
4900.00	18.36	0.0218025
4920.00	18.02	0.0217504
4940.00	17.69	0.0216568
4960.00	17.36	0.0215463
4980.00	17.02	0.0214974
5000.00	16.69	0.0214269
5020.00	16.36	0.0213560
5040.00	16.02	0.0212931
5060.00	15.69	0.0212476
5080.00	15.36	0.0212135
5100.00	15.02	0.0211409
5120.00	14.69	0.0210516
5140.00	14.36	0.0210102
5160.00	14.02	0.0209789
5180.00	13.69	0.0209497
5200.00	13.35	0.0208791
5220.00	13.02	0.0207798
5240.00	12.69	0.0207122
5260.00	12.36	0.0206658
5280.00	12.02	0.0206448
5300.00	11.69	0.0205908
5320.00	11.36	0.0205130
5340.00	11.02	0.0204670
5360.00	10.69	0.0203653
5380.00	10.36	0.0203080
5400.00	10.02	0.0202644
5420.00	9.69	0.0202173
5440.00	9.36	0.0201488
5460.00	9.02	0.0200605
5480.00	8.69	0.0200379
5500.00	8.35	0.0199582
5520.00	8.02	0.0199086
5540.00	7.69	0.0198838
5560.00	7.36	0.0197961
5580.00	7.02	0.0196996
5600.00	6.69	0.0196354
5620.00	6.36	0.0195944
5640.00	6.02	0.0195470
5660.00	5.69	0.0195120
5680.00	5.35	0.0194350
5700.00	5.02	0.0193654
5720.00	4.69	0.0193074
5740.00	4.36	0.0192351
5760.00	4.02	0.0191730
5780.00	3.69	0.0191617
5800.00	3.35	0.0191861
5820.00	3.02	0.0191079
5840.00	2.69	0.0190347
5860.00	2.35	0.0189726
5880.00	2.02	0.0189316
5900.00	1.69	0.0189825
5920.00	1.36	0.0189278
5940.00	1.02	0.0188687
5960.00	0.69	0.0188230
5980.00	0.35	0.0187559
5999.90	0.02	0.0186914

File: 8OCB SqA wt fraction 094.txt
Filename	8OCBSA094
Instrument name	DSC2A-00101 (192.168.10.4)
Operator	Yuma
rundate	5/28/2021
Sample name	8OCBSA094
proceduresegments	Data Off ; Equilibrate 150.00 °C; Isothermal 10.0 min; Equilibrate 100.00 °C; Isothermal 5.0 min; Data On ; Ramp 1.00 °C/min to 0.00 °C; Ramp 5.00 °C/min to 150.00 °C; Data Off ; Isothermal 10.0 min; Modulate Temperature 1.00 °C for 60.0 s; Equilibrate 100.00 °C; Isothermal 10.0 min; Data On ; Ramp 1.00 °C/min to 0.00 °C; Ramp 3.00 °C/min to 100.00 °C; Jump 30.00 °C
[step]
Ramp 1.00 °C/min to 0.00 °C
Time	Temperature	Heat Flow (Normalized)
s	°C	W/g
0.00000	99.84	1.26150e-3
20.0000	99.65	0.0183956
40.0000	99.33	0.0290197
60.0000	99.00	0.0312656
80.0000	98.66	0.0319384
100.000	98.33	0.0320927
120.000	98.00	0.0322252
140.000	97.66	0.0321037
160.000	97.33	0.0320938
180.000	97.00	0.0322493
200.000	96.66	0.0319828
220.000	96.33	0.0318730
240.000	96.00	0.0319085
260.000	95.66	0.0318568
280.000	95.33	0.0318095
300.000	95.00	0.0317998
320.000	94.67	0.0317811
340.000	94.33	0.0317777
360.000	94.00	0.0317926
380.000	93.67	0.0317265
400.000	93.33	0.0316846
420.000	93.00	0.0317115
440.000	92.67	0.0316813
460.000	92.33	0.0316392
480.000	92.00	0.0315939
500.000	91.67	0.0315176
520.000	91.33	0.0314884
540.000	91.00	0.0315872
560.000	90.67	0.0315287
580.000	90.33	0.0315496
600.000	90.00	0.0314981
620.000	89.67	0.0313785
640.000	89.33	0.0314100
660.000	89.00	0.0313965
680.000	88.67	0.0313877
700.000	88.33	0.0313766
720.000	88.00	0.0313071
740.000	87.67	0.0312185
760.000	87.33	0.0312496
780.000	87.00	0.0313060
800.000	86.67	0.0312298
820.000	86.33	0.0312235
840.000	86.00	0.0311582
860.000	85.67	0.0312265
880.000	85.33	0.0312188
900.000	85.00	0.0312081
920.000	84.67	0.0311966
940.000	84.33	0.0311473
960.000	84.00	0.0311241
980.000	83.67	0.0311591
1000.00	83.33	0.0311240
1020.00	83.00	0.0311002
1040.00	82.67	0.0310994
1060.00	82.34	0.0311126
1080.00	82.00	0.0311013
1100.00	81.67	0.0311517
1120.00	81.33	0.0311002
1140.00	81.00	0.0310497
1160.00	80.67	0.0310727
1180.00	80.33	0.0310846
1200.00	80.00	0.0310642
1220.00	79.67	0.0310545
1240.00	79.34	0.0309963
1260.00	79.00	0.0310138
1280.00	78.67	0.0310502
1300.00	78.34	0.0310520
1320.00	78.00	0.0310634
1340.00	77.67	0.0310784
1360.00	77.34	0.0310694
1380.00	77.00	0.0310282
1400.00	76.67	0.0310794
1420.00	76.34	0.0310995
1440.00	76.00	0.0310769
1460.00	75.67	0.0310463
1480.00	75.34	0.0310964
1500.00	75.00	0.0312008
1520.00	74.67	0.0311796
1540.00	74.34	0.0311355
1560.00	74.00	0.0311555
1580.00	73.67	0.0312139
1600.00	73.34	0.0312326
1620.00	73.00	0.0312190
1640.00	72.67	0.0312481
1660.00	72.34	0.0313284
1680.00	72.00	0.0313468
1700.00	71.67	0.0313505
1720.00	71.34	0.0314194
1740.00	71.00	0.0314583
1760.00	70.67	0.0315242
1780.00	70.34	0.0316697
1800.00	70.00	0.0317234
1820.00	69.67	0.0317317
1840.00	69.34	0.0318527
1860.00	69.00	0.0319107
1880.00	68.67	0.0319956
1900.00	68.34	0.0321282
1920.00	68.01	0.0322702
1940.00	67.67	0.0325110
1960.00	67.34	0.0327768
1980.00	67.01	0.0331003
2000.00	66.67	0.0334961
2020.00	66.34	0.0360106
2040.00	66.01	0.0392327
2060.00	65.68	0.0416651
2080.00	65.35	0.0437671
2100.00	65.01	0.0442768
2120.00	64.68	0.0437364
2140.00	64.35	0.0426619
2160.00	64.01	0.0415505
2180.00	63.68	0.0405656
2200.00	63.34	0.0397494
2220.00	63.01	0.0389366
2240.00	62.68	0.0382730
2260.00	62.34	0.0377623
2280.00	62.01	0.0372359
2300.00	61.68	0.0367562
2320.00	61.34	0.0363519
2340.00	61.01	0.0359743
2360.00	60.68	0.0356334
2380.00	60.34	0.0353319
2400.00	60.01	0.0351408
2420.00	59.68	0.0350732
2440.00	59.34	0.0364753
2460.00	59.01	0.0356550
2480.00	58.68	0.0360638
2500.00	58.35	0.0375607
2520.00	58.01	0.0393039
2540.00	57.68	0.0460846
2560.00	57.34	0.0419154
2580.00	57.01	0.0372023
2600.00	56.68	0.0345756
2620.00	56.34	0.0332045
2640.00	56.01	0.0323742
2660.00	55.67	0.0317786
2680.00	55.34	0.0313562
2700.00	55.01	0.0310202
2720.00	54.67	0.0307437
2740.00	54.34	0.0304728
2760.00	54.01	0.0302636
2780.00	53.67	0.0300911
2800.00	53.34	0.0298598
2820.00	53.01	0.0296987
2840.00	52.67	0.0295013
2860.00	52.34	0.0293677
2880.00	52.01	0.0292064
2900.00	51.67	0.0290609
2920.00	51.34	0.0289823
2940.00	51.01	0.0288034
2960.00	50.67	0.0286975
2980.00	50.34	0.0286065
3000.00	50.01	0.0285140
3020.00	49.67	0.0283891
3040.00	49.34	0.0282462
3060.00	49.01	0.0281985
3080.00	48.67	0.0281328
3100.00	48.34	0.0280395
3120.00	48.01	0.0278333
3140.00	47.67	0.0278210
3160.00	47.34	0.0278690
3180.00	47.01	0.0276805
3200.00	46.67	0.0275530
3220.00	46.34	0.0275077
3240.00	46.01	0.0275425
3260.00	45.67	0.0274075
3280.00	45.34	0.0273686
3300.00	45.01	0.0272966
3320.00	44.67	0.0272442
3340.00	44.34	0.0271428
3360.00	44.01	0.0270825
3380.00	43.67	0.0270943
3400.00	43.34	0.0270032
3420.00	43.01	0.0269323
3440.00	42.67	0.0269130
3460.00	42.34	0.0268117
3480.00	42.01	0.0267741
3500.00	41.67	0.0266847
3520.00	41.34	0.0266130
3540.00	41.01	0.0265837
3560.00	40.67	0.0265250
3580.00	40.34	0.0264564
3600.00	40.01	0.0264482
3620.00	39.67	0.0263343
3640.00	39.34	0.0263004
3660.00	39.01	0.0262901
3680.00	38.67	0.0261784
3700.00	38.34	0.0261604
3720.00	38.01	0.0260673
3740.00	37.67	0.0260509
3760.00	37.34	0.0259801
3780.00	37.01	0.0258915
3800.00	36.67	0.0259130
3820.00	36.34	0.0258314
3840.00	36.01	0.0257999
3860.00	35.67	0.0257266
3880.00	35.34	0.0256714
3900.00	35.01	0.0256356
3920.00	34.67	0.0255426
3940.00	34.34	0.0255343
3960.00	34.01	0.0254896
3980.00	33.67	0.0254354
4000.00	33.34	0.0253875
4020.00	33.01	0.0253545
4040.00	32.67	0.0252450
4060.00	32.34	0.0252518
4080.00	32.01	0.0252149
4100.00	31.67	0.0251229
4120.00	31.34	0.0250681
4140.00	31.01	0.0250457
4160.00	30.67	0.0249960
4180.00	30.34	0.0249681
4200.00	30.01	0.0249080
4220.00	29.67	0.0248608
4240.00	29.34	0.0247975
4260.00	29.01	0.0247112
4280.00	28.67	0.0247026
4300.00	28.34	0.0247424
4320.00	28.01	0.0246503
4340.00	27.67	0.0245343
4360.00	27.34	0.0245349
4380.00	27.01	0.0244879
4400.00	26.67	0.0244232
4420.00	26.34	0.0244004
4440.00	26.01	0.0243591
4460.00	25.84	0.109130
4480.00	26.49	1.60939
4500.00	25.69	1.00463
4520.00	25.05	0.540664
4540.00	24.39	0.113640
4560.00	24.01	0.0322187
4580.00	23.67	0.0271884
4600.00	23.34	0.0249417
4620.00	23.01	0.0237511
4640.00	22.67	0.0229518
4660.00	22.34	0.0223726
4680.00	22.01	0.0219193
4700.00	21.67	0.0214793
4720.00	21.34	0.0211798
4740.00	21.01	0.0208726
4760.00	20.67	0.0206078
4780.00	20.34	0.0203670
4800.00	20.01	0.0201060
4820.00	19.67	0.0199770
4840.00	19.34	0.0197922
4860.00	19.01	0.0196096
4880.00	18.67	0.0194187
4900.00	18.34	0.0192283
4920.00	18.00	0.0191160
4940.00	17.67	0.0189445
4960.00	17.34	0.0188074
4980.00	17.00	0.0186924
5000.00	16.67	0.0185380
5020.00	16.34	0.0184045
5040.00	16.01	0.0183517
5060.00	15.67	0.0183041
5080.00	15.34	0.0181308
5100.00	15.00	0.0179917
5120.00	14.67	0.0178868
5140.00	14.34	0.0177808
5160.00	14.01	0.0176985
5180.00	13.67	0.0175979
5200.00	13.34	0.0174976
5220.00	13.00	0.0174116
5240.00	12.67	0.0173313
5260.00	12.34	0.0172271
5280.00	12.00	0.0171297
5300.00	11.67	0.0170369
5320.00	11.34	0.0169492
5340.00	11.01	0.0168738
5360.00	10.67	0.0167595
5380.00	10.34	0.0167045
5400.00	10.01	0.0165489
5420.00	9.67	0.0164772
5440.00	9.34	0.0163920
5460.00	9.01	0.0162923
5480.00	8.67	0.0162004
5500.00	8.34	0.0161002
5520.00	8.00	0.0160490
5540.00	7.67	0.0159611
5560.00	7.34	0.0159200
5580.00	7.00	0.0158427
5600.00	6.67	0.0157492
5620.00	6.34	0.0156701
5640.00	6.00	0.0155946
5660.00	5.67	0.0155400
5680.00	5.34	0.0154680
5700.00	5.00	0.0153691
5720.00	4.67	0.0153441
5740.00	4.34	0.0152244
5760.00	4.01	0.0151585
5780.00	3.67	0.0151004
5800.00	3.34	0.0150540
5820.00	3.00	0.0150578
5840.00	2.67	0.0149876
5860.00	2.34	0.0149317
5880.00	2.00	0.0148780
5900.00	1.67	0.0147952
5920.00	1.34	0.0147569
5940.00	1.00	0.0147205
5960.00	0.67	0.0147298
5980.00	0.34	0.0146626
5999.90	0.01	0.0145942