Folder: StructuralDiversity/Differential scanning calorimetry/8OCB Squalane (part 3)

File: 8OCB SqA wt fraction 397.txt
Filename	8OCBSA397
Instrument name	DSC2A-00101 (192.168.10.4)
Operator	Yuma
rundate	5/28/2021
Sample name	8OCBSA397
proceduresegments	Data Off ; Equilibrate 150.00 °C; Isothermal 10.0 min; Equilibrate 100.00 °C; Isothermal 5.0 min; Data On ; Ramp 1.00 °C/min to 0.00 °C; Ramp 5.00 °C/min to 150.00 °C; Data Off ; Isothermal 10.0 min; Modulate Temperature 1.00 °C for 60.0 s; Equilibrate 100.00 °C; Isothermal 10.0 min; Data On ; Ramp 1.00 °C/min to 0.00 °C; Ramp 3.00 °C/min to 100.00 °C; Jump 30.00 °C
[step]
Ramp 1.00 °C/min to 0.00 °C
Time	Temperature	Heat Flow (Normalized)
s	°C	W/g
0.00000	99.84	4.45707e-3
20.0000	99.65	0.0208668
40.0000	99.32	0.0315097
60.0000	98.99	0.0341064
80.0000	98.66	0.0348180
100.000	98.32	0.0349872
120.000	97.99	0.0350289
140.000	97.66	0.0349448
160.000	97.32	0.0349239
180.000	96.99	0.0348040
200.000	96.66	0.0347594
220.000	96.32	0.0347545
240.000	95.99	0.0346570
260.000	95.66	0.0346238
280.000	95.33	0.0346057
300.000	94.99	0.0345886
320.000	94.66	0.0345843
340.000	94.32	0.0344867
360.000	93.99	0.0343895
380.000	93.66	0.0342674
400.000	93.32	0.0342478
420.000	92.99	0.0341770
440.000	92.66	0.0341949
460.000	92.33	0.0340901
480.000	91.99	0.0340529
500.000	91.66	0.0339881
520.000	91.32	0.0339598
540.000	90.99	0.0339062
560.000	90.66	0.0338429
580.000	90.33	0.0337608
600.000	89.99	0.0337204
620.000	89.66	0.0336350
640.000	89.33	0.0336008
660.000	88.99	0.0335353
680.000	88.66	0.0334699
700.000	88.33	0.0334933
720.000	87.99	0.0334139
740.000	87.66	0.0333058
760.000	87.33	0.0332508
780.000	86.99	0.0332735
800.000	86.66	0.0332197
820.000	86.33	0.0331986
840.000	85.99	0.0330824
860.000	85.66	0.0330789
880.000	85.33	0.0329996
900.000	84.99	0.0329618
920.000	84.66	0.0329332
940.000	84.33	0.0328809
960.000	83.99	0.0327685
980.000	83.66	0.0327024
1000.00	83.33	0.0326646
1020.00	82.99	0.0326254
1040.00	82.66	0.0326427
1060.00	82.33	0.0325898
1080.00	81.99	0.0325474
1100.00	81.66	0.0325495
1120.00	81.33	0.0325214
1140.00	80.99	0.0325103
1160.00	80.66	0.0323375
1180.00	80.33	0.0322828
1200.00	79.99	0.0322724
1220.00	79.66	0.0322419
1240.00	79.33	0.0322324
1260.00	78.99	0.0320833
1280.00	78.66	0.0320545
1300.00	78.33	0.0320798
1320.00	77.99	0.0320631
1340.00	77.66	0.0320090
1360.00	77.33	0.0319269
1380.00	77.00	0.0318738
1400.00	76.66	0.0318640
1420.00	76.33	0.0319174
1440.00	76.00	0.0318285
1460.00	75.66	0.0317686
1480.00	75.33	0.0317863
1500.00	75.00	0.0317785
1520.00	74.66	0.0317294
1540.00	74.33	0.0316901
1560.00	74.00	0.0316468
1580.00	73.66	0.0316126
1600.00	73.33	0.0316033
1620.00	72.99	0.0316031
1640.00	72.66	0.0315149
1660.00	72.33	0.0314919
1680.00	72.00	0.0315127
1700.00	71.66	0.0314061
1720.00	71.33	0.0314203
1740.00	71.00	0.0313821
1760.00	70.66	0.0314174
1780.00	70.33	0.0313443
1800.00	70.00	0.0313659
1820.00	69.66	0.0313452
1840.00	69.33	0.0313165
1860.00	69.00	0.0312928
1880.00	68.66	0.0313831
1900.00	68.33	0.0313125
1920.00	68.00	0.0312898
1940.00	67.66	0.0313161
1960.00	67.33	0.0313219
1980.00	67.00	0.0313416
2000.00	66.66	0.0313319
2020.00	66.33	0.0313420
2040.00	66.00	0.0313682
2060.00	65.66	0.0314330
2080.00	65.33	0.0314812
2100.00	65.00	0.0315443
2120.00	64.66	0.0315688
2140.00	64.33	0.0316905
2160.00	64.00	0.0317923
2180.00	63.66	0.0319017
2200.00	63.33	0.0321149
2220.00	63.00	0.0321904
2240.00	62.66	0.0324195
2260.00	62.33	0.0327281
2280.00	62.00	0.0350577
2300.00	61.67	0.0380296
2320.00	61.33	0.0385206
2340.00	61.00	0.0384870
2360.00	60.67	0.0384642
2380.00	60.34	0.0384874
2400.00	60.00	0.0387149
2420.00	59.67	0.0393431
2440.00	59.40	0.140382
2460.00	59.01	0.0711067
2480.00	58.67	0.0501689
2500.00	58.34	0.0472708
2520.00	58.00	0.0433285
2540.00	57.67	0.0423183
2560.00	57.34	0.0417041
2580.00	57.00	0.0378323
2600.00	56.67	0.0354606
2620.00	56.33	0.0341465
2640.00	56.00	0.0333675
2660.00	55.67	0.0327624
2680.00	55.33	0.0323148
2700.00	55.00	0.0319266
2720.00	54.67	0.0315775
2740.00	54.33	0.0312955
2760.00	54.00	0.0310631
2780.00	53.67	0.0308126
2800.00	53.33	0.0305376
2820.00	53.00	0.0303319
2840.00	52.67	0.0301275
2860.00	52.33	0.0299645
2880.00	52.00	0.0298220
2900.00	51.66	0.0296762
2920.00	51.33	0.0295228
2940.00	51.00	0.0293591
2960.00	50.67	0.0292023
2980.00	50.33	0.0290613
3000.00	50.00	0.0289378
3020.00	49.66	0.0287945
3040.00	49.33	0.0286458
3060.00	49.00	0.0285652
3080.00	48.66	0.0285423
3100.00	48.33	0.0283863
3120.00	48.00	0.0281706
3140.00	47.66	0.0281207
3160.00	47.33	0.0281398
3180.00	47.00	0.0278995
3200.00	46.67	0.0276885
3220.00	46.33	0.0276118
3240.00	46.00	0.0276131
3260.00	45.66	0.0275337
3280.00	45.33	0.0273534
3300.00	45.00	0.0273200
3320.00	44.67	0.0272439
3340.00	44.33	0.0271660
3360.00	44.00	0.0270505
3380.00	43.66	0.0269262
3400.00	43.33	0.0268566
3420.00	43.00	0.0267851
3440.00	42.66	0.0266929
3460.00	42.33	0.0265893
3480.00	42.00	0.0265067
3500.00	41.66	0.0264160
3520.00	41.33	0.0263026
3540.00	41.00	0.0261949
3560.00	40.66	0.0262153
3580.00	40.33	0.0261117
3600.00	40.00	0.0260556
3620.00	39.67	0.0259825
3640.00	39.33	0.0258369
3660.00	39.00	0.0257798
3680.00	38.66	0.0256789
3700.00	38.33	0.0255884
3720.00	38.00	0.0255170
3740.00	37.66	0.0254953
3760.00	37.33	0.0253772
3780.00	37.00	0.0253134
3800.00	36.66	0.0252907
3820.00	36.33	0.0252323
3840.00	36.00	0.0250860
3860.00	35.67	0.0249513
3880.00	35.33	0.0248525
3900.00	35.00	0.0247994
3920.00	34.67	0.0247502
3940.00	34.33	0.0246602
3960.00	34.00	0.0246279
3980.00	33.67	0.0245284
4000.00	33.33	0.0244526
4020.00	33.00	0.0243694
4040.00	32.67	0.0243081
4060.00	32.33	0.0242586
4080.00	32.00	0.0242237
4100.00	31.66	0.0240629
4120.00	31.33	0.0240430
4140.00	31.00	0.0240031
4160.00	30.67	0.0239215
4180.00	30.33	0.0239115
4200.00	30.00	0.0238780
4220.00	29.67	0.0240024
4240.00	29.34	0.0386066
4260.00	29.37	0.701518
4280.00	28.99	0.619316
4300.00	28.77	0.806168
4320.00	28.08	0.208729
4340.00	27.67	0.0367449
4360.00	27.33	0.0272608
4380.00	27.00	0.0243144
4400.00	26.67	0.0229754
4420.00	26.33	0.0223224
4440.00	26.00	0.0218450
4460.00	25.66	0.0214894
4480.00	25.33	0.0211840
4500.00	25.00	0.0209218
4520.00	24.66	0.0207145
4540.00	24.33	0.0205424
4560.00	24.00	0.0203556
4580.00	23.66	0.0201737
4600.00	23.33	0.0200039
4620.00	23.00	0.0198720
4640.00	22.66	0.0197005
4660.00	22.33	0.0195946
4680.00	22.00	0.0194513
4700.00	21.66	0.0193816
4720.00	21.33	0.0192405
4740.00	21.00	0.0190511
4760.00	20.66	0.0189493
4780.00	20.33	0.0188255
4800.00	20.00	0.0187618
4820.00	19.66	0.0186013
4840.00	19.33	0.0184913
4860.00	19.00	0.0184038
4880.00	18.66	0.0183206
4900.00	18.33	0.0181473
4920.00	18.00	0.0180216
4940.00	17.66	0.0179273
4960.00	17.33	0.0177902
4980.00	17.00	0.0177329
5000.00	16.66	0.0176379
5020.00	16.33	0.0175195
5040.00	16.00	0.0174519
5060.00	15.66	0.0173889
5080.00	15.33	0.0173283
5100.00	15.00	0.0171943
5120.00	14.66	0.0171077
5140.00	14.33	0.0169544
5160.00	14.00	0.0169115
5180.00	13.66	0.0168354
5200.00	13.33	0.0166585
5220.00	13.00	0.0165741
5240.00	12.66	0.0165765
5260.00	12.33	0.0164512
5280.00	12.00	0.0163803
5300.00	11.66	0.0162643
5320.00	11.33	0.0161508
5340.00	11.00	0.0160471
5360.00	10.66	0.0159575
5380.00	10.33	0.0158659
5400.00	10.00	0.0157962
5420.00	9.66	0.0156766
5440.00	9.33	0.0156367
5460.00	9.00	0.0155558
5480.00	8.66	0.0154265
5500.00	8.33	0.0153733
5520.00	8.00	0.0152539
5540.00	7.66	0.0151992
5560.00	7.33	0.0150948
5580.00	7.00	0.0149939
5600.00	6.66	0.0149474
5620.00	6.33	0.0147778
5640.00	6.00	0.0147476
5660.00	5.66	0.0146970
5680.00	5.33	0.0146327
5700.00	5.00	0.0145101
5720.00	4.66	0.0144010
5740.00	4.33	0.0143119
5760.00	4.00	0.0142775
5780.00	3.66	0.0142223
5800.00	3.33	0.0141126
5820.00	3.00	0.0140462
5840.00	2.66	0.0139426
5860.00	2.33	0.0139639
5880.00	2.00	0.0138698
5900.00	1.66	0.0138244
5920.00	1.33	0.0138063
5940.00	1.00	0.0137398
5960.00	0.66	0.0136827
5980.00	0.33	0.0136425
5999.90	0.00	0.0136134

File: 8OCB SqA wt fraction 523.txt
Filename	8OCBSA523
Instrument name	DSC2A-00101 (192.168.10.4)
Operator	Yuma
rundate	5/29/2021
Sample name	8OCBSA523
proceduresegments	Data Off ; Equilibrate 150.00 °C; Isothermal 10.0 min; Equilibrate 100.00 °C; Isothermal 5.0 min; Data On ; Ramp 1.00 °C/min to 0.00 °C; Ramp 5.00 °C/min to 150.00 °C; Data Off ; Isothermal 10.0 min; Modulate Temperature 1.00 °C for 60.0 s; Equilibrate 100.00 °C; Isothermal 10.0 min; Data On ; Ramp 1.00 °C/min to 0.00 °C; Ramp 3.00 °C/min to 100.00 °C; Jump 30.00 °C
[step]
Ramp 1.00 °C/min to 0.00 °C
Time	Temperature	Heat Flow (Normalized)
s	°C	W/g
0.00000	99.84	3.94124e-4
20.1000	99.66	0.0187274
40.2000	99.34	0.0310965
60.3000	99.01	0.0331697
80.4000	98.68	0.0339756
100.500	98.34	0.0342025
120.600	98.01	0.0343548
140.700	97.67	0.0343562
160.800	97.34	0.0342932
180.900	97.00	0.0343043
201.000	96.67	0.0342325
221.100	96.33	0.0342881
241.200	96.00	0.0342725
261.300	95.66	0.0342432
281.400	95.33	0.0342567
301.500	94.99	0.0341989
321.600	94.66	0.0341827
341.700	94.32	0.0342215
361.800	93.99	0.0341630
381.900	93.65	0.0341137
402.000	93.32	0.0340943
422.100	92.98	0.0341483
442.200	92.65	0.0341105
462.300	92.31	0.0341011
482.400	91.98	0.0341360
502.500	91.64	0.0340252
522.600	91.31	0.0340437
542.700	90.97	0.0340508
562.800	90.64	0.0340226
582.900	90.30	0.0340667
603.000	89.97	0.0339604
623.100	89.63	0.0340150
643.200	89.30	0.0340037
663.300	88.96	0.0339833
683.400	88.63	0.0339766
703.500	88.29	0.0339529
723.600	87.96	0.0339243
743.700	87.62	0.0339293
763.800	87.29	0.0339288
783.900	86.95	0.0339378
804.000	86.62	0.0338901
824.100	86.28	0.0339050
844.200	85.95	0.0338801
864.300	85.61	0.0338919
884.400	85.28	0.0338850
904.500	84.94	0.0338070
924.600	84.61	0.0338048
944.700	84.28	0.0338739
964.800	83.94	0.0338964
984.900	83.60	0.0338559
1005.00	83.27	0.0338147
1025.10	82.94	0.0338272
1045.20	82.60	0.0338501
1065.30	82.27	0.0338188
1085.40	81.93	0.0338179
1105.50	81.60	0.0338508
1125.60	81.26	0.0338579
1145.70	80.93	0.0338474
1165.80	80.59	0.0338278
1185.90	80.26	0.0338441
1206.00	79.92	0.0338764
1226.10	79.59	0.0338521
1246.20	79.25	0.0338534
1266.30	78.92	0.0338482
1286.40	78.58	0.0338349
1306.50	78.25	0.0338552
1326.60	77.91	0.0338715
1346.70	77.58	0.0338470
1366.80	77.24	0.0338876
1386.90	76.91	0.0338754
1407.00	76.57	0.0339226
1427.10	76.24	0.0338963
1447.20	75.90	0.0339164
1467.30	75.57	0.0339288
1487.40	75.23	0.0339117
1507.50	74.90	0.0339205
1527.60	74.56	0.0339699
1547.70	74.23	0.0340321
1567.80	73.89	0.0340059
1587.90	73.56	0.0340208
1608.00	73.22	0.0340534
1628.10	72.89	0.0341117
1648.20	72.55	0.0341442
1668.30	72.22	0.0341599
1688.40	71.88	0.0341882
1708.50	71.55	0.0342299
1728.60	71.21	0.0342681
1748.70	70.88	0.0343389
1768.80	70.54	0.0344134
1788.90	70.21	0.0344614
1809.00	69.87	0.0345465
1829.10	69.54	0.0346379
1849.20	69.20	0.0346632
1869.30	68.87	0.0348530
1889.40	68.54	0.0351703
1909.50	68.20	0.0355452
1929.60	67.87	0.0360979
1949.70	67.53	0.0372522
1969.80	67.20	0.0380815
1989.90	66.87	0.0385259
2010.00	66.53	0.0386866
2030.10	66.20	0.0387759
2050.20	65.86	0.0388034
2070.30	65.52	0.0387518
2090.40	65.19	0.0387519
2110.50	64.85	0.0387379
2130.60	64.52	0.0386683
2150.70	64.19	0.0386335
2170.80	63.85	0.0385992
2190.90	63.51	0.0385823
2211.00	63.18	0.0385973
2231.10	62.85	0.0385862
2251.20	62.51	0.0386429
2271.30	62.17	0.0386891
2291.40	61.84	0.0387355
2311.50	61.51	0.0389227
2331.60	61.17	0.0390916
2351.70	60.84	0.0392179
2371.80	60.50	0.0394866
2391.90	60.17	0.0398248
2412.00	59.83	0.0403471
2432.10	59.50	0.0411824
2452.20	59.17	0.0432878
2472.30	58.88	0.0965096
2492.40	58.51	0.0559640
2512.50	58.16	0.0481141
2532.60	57.83	0.0452099
2552.70	57.49	0.0439496
2572.80	57.16	0.0458161
2592.90	56.82	0.0425511
2613.00	56.48	0.0395833
2633.10	56.14	0.0377732
2653.20	55.81	0.0367524
2673.30	55.47	0.0359964
2693.40	55.14	0.0355145
2713.50	54.80	0.0350886
2733.60	54.47	0.0347480
2753.70	54.13	0.0344993
2773.80	53.80	0.0342731
2793.90	53.46	0.0340450
2814.00	53.13	0.0338436
2834.10	52.79	0.0336454
2854.20	52.46	0.0335039
2874.30	52.12	0.0333628
2894.40	51.79	0.0332130
2914.50	51.45	0.0330357
2934.60	51.12	0.0329278
2954.70	50.78	0.0328127
2974.80	50.45	0.0327016
2994.90	50.11	0.0326252
3015.00	49.78	0.0324897
3035.10	49.44	0.0323891
3055.20	49.11	0.0323447
3075.30	48.77	0.0322527
3095.40	48.44	0.0321905
3115.50	48.10	0.0320905
3135.60	47.77	0.0320184
3155.70	47.43	0.0320128
3175.80	47.10	0.0318693
3195.90	46.76	0.0317358
3216.00	46.43	0.0316122
3236.10	46.09	0.0315987
3256.20	45.75	0.0315965
3276.30	45.42	0.0314837
3296.40	45.08	0.0314593
3316.50	44.75	0.0313629
3336.60	44.41	0.0313132
3356.70	44.08	0.0312662
3376.80	43.75	0.0312078
3396.90	43.41	0.0311525
3417.00	43.08	0.0310651
3437.10	42.74	0.0309910
3457.20	42.41	0.0309797
3477.30	42.07	0.0309523
3497.40	41.73	0.0308375
3517.50	41.40	0.0308026
3537.60	41.07	0.0307514
3557.70	40.73	0.0307260
3577.80	40.39	0.0306844
3597.90	40.06	0.0306293
3618.00	39.72	0.0305349
3638.10	39.39	0.0304958
3658.20	39.05	0.0304804
3678.30	38.72	0.0304429
3698.40	38.38	0.0303741
3718.50	38.05	0.0303268
3738.60	37.71	0.0302942
3758.70	37.38	0.0302647
3778.80	37.05	0.0301614
3798.90	36.71	0.0301840
3819.00	36.37	0.0301351
3839.10	36.04	0.0300815
3859.20	35.70	0.0300597
3879.30	35.37	0.0299530
3899.40	35.03	0.0298958
3919.50	34.70	0.0298763
3939.60	34.36	0.0298802
3959.70	34.03	0.0298215
3979.80	33.70	0.0297259
3999.90	33.36	0.0296929
4020.00	33.03	0.0296597
4040.10	32.69	0.0296403
4060.20	32.35	0.0295759
4080.30	32.02	0.0295667
4100.40	31.68	0.0295333
4120.50	31.35	0.0295041
4140.60	31.02	0.0294237
4160.70	30.68	0.0293765
4180.80	30.34	0.0293592
4200.90	30.01	0.0293384
4221.00	29.68	0.0292626
4241.10	29.34	0.0292149
4261.20	29.00	0.0291717
4281.30	28.67	0.0291813
4301.40	28.33	0.0291663
4321.50	28.00	0.0290958
4341.60	27.66	0.0290714
4361.70	27.33	0.0290126
4381.80	26.99	0.0289879
4401.90	26.66	0.0289947
4422.00	26.32	0.0289264
4442.10	25.99	0.0288498
4462.20	25.65	0.0288267
4482.30	25.32	0.0288268
4502.40	25.00	0.0368178
4522.50	24.81	0.132404
4542.60	24.89	0.440498
4562.70	25.58	1.26066
4582.80	25.24	1.37779
4602.90	23.95	0.604620
4623.00	23.14	0.189870
4643.10	22.67	0.0588201
4663.20	22.32	0.0408583
4683.30	21.97	0.0283225
4703.40	21.63	0.0275707
4723.50	21.30	0.0262341
4743.60	20.96	0.0264839
4763.70	20.63	0.0260174
4783.80	20.29	0.0246322
4803.90	19.95	0.0232007
4824.00	19.62	0.0224774
4844.10	19.28	0.0224298
4864.20	18.95	0.0221653
4884.30	18.61	0.0219786
4904.40	18.28	0.0218319
4924.50	17.94	0.0217450
4944.60	17.61	0.0216726
4964.70	17.27	0.0215973
4984.80	16.94	0.0215773
5004.90	16.60	0.0215748
5025.00	16.27	0.0215141
5045.10	15.93	0.0214492
5065.20	15.60	0.0213472
5085.30	15.26	0.0212897
5105.40	14.93	0.0212059
5125.50	14.59	0.0211384
5145.60	14.26	0.0211651
5165.70	13.92	0.0211080
5185.80	13.59	0.0210025
5205.90	13.25	0.0209296
5226.00	12.92	0.0208702
5246.10	12.58	0.0208328
5266.20	12.25	0.0208075
5286.30	11.91	0.0207452
5306.40	11.58	0.0207296
5326.50	11.24	0.0206306
5346.60	10.91	0.0205465
5366.70	10.57	0.0204950
5386.80	10.24	0.0204252
5406.90	9.90	0.0203711
5427.00	9.57	0.0202651
5447.10	9.23	0.0202848
5467.20	8.90	0.0203085
5487.30	8.56	0.0202415
5507.40	8.23	0.0201275
5527.50	7.89	0.0200186
5547.60	7.56	0.0199663
5567.70	7.22	0.0199218
5587.80	6.88	0.0198790
5607.90	6.55	0.0198025
5628.00	6.22	0.0197317
5648.10	5.88	0.0197248
5668.20	5.55	0.0197157
5688.30	5.21	0.0196911
5708.40	4.88	0.0196456
5728.50	4.54	0.0195659
5748.60	4.21	0.0194759
5768.70	3.87	0.0194350
5788.80	3.54	0.0193449
5808.90	3.20	0.0193332
5829.00	2.87	0.0193206
5849.10	2.53	0.0193259
5869.20	2.19	0.0192911
5889.30	1.86	0.0192157
5909.40	1.53	0.0191909
5929.50	1.19	0.0191400
5949.60	0.86	0.0191164
5969.70	0.52	0.0190627
5989.80	0.19	0.0190530
6000.00	0.02	0.0190284

File: 8OCB SqA wt fraction 696.txt
Filename	8OCBSA696
Instrument name	DSC2A-00101 (192.168.10.4)
Operator	Yuma
rundate	5/30/2021
Sample name	8OCBSA696
proceduresegments	Data Off ; Equilibrate 150.00 °C; Isothermal 10.0 min; Equilibrate 100.00 °C; Isothermal 5.0 min; Data On ; Ramp 1.00 °C/min to 0.00 °C; Ramp 5.00 °C/min to 150.00 °C; Data Off ; Isothermal 10.0 min; Modulate Temperature 1.00 °C for 60.0 s; Equilibrate 100.00 °C; Isothermal 10.0 min; Data On ; Ramp 1.00 °C/min to 0.00 °C; Ramp 3.00 °C/min to 100.00 °C; Jump 30.00 °C
[step]
Ramp 1.00 °C/min to 0.00 °C
Time	Temperature	Heat Flow (Normalized)
s	°C	W/g
0.00000	99.84	2.63962e-3
20.1000	99.65	0.0210107
40.2000	99.32	0.0316787
60.3000	98.99	0.0341870
80.4000	98.66	0.0349207
100.500	98.32	0.0351651
120.600	97.99	0.0351495
140.700	97.65	0.0350723
160.800	97.32	0.0349931
180.900	96.98	0.0349578
201.000	96.65	0.0350093
221.100	96.31	0.0348742
241.200	95.98	0.0348181
261.300	95.64	0.0347566
281.400	95.31	0.0347178
301.500	94.97	0.0347398
321.600	94.64	0.0347256
341.700	94.30	0.0346838
361.800	93.97	0.0345327
381.900	93.63	0.0344598
402.000	93.30	0.0344530
422.100	92.96	0.0344200
442.200	92.63	0.0343996
462.300	92.29	0.0343243
482.400	91.96	0.0343501
502.500	91.62	0.0342700
522.600	91.29	0.0342032
542.700	90.95	0.0341334
562.800	90.62	0.0341160
582.900	90.28	0.0341224
603.000	89.95	0.0340262
623.100	89.61	0.0340428
643.200	89.28	0.0339598
663.300	88.94	0.0339526
683.400	88.61	0.0338619
703.500	88.27	0.0338303
723.600	87.94	0.0337578
743.700	87.60	0.0336417
763.800	87.27	0.0336367
783.900	86.93	0.0336072
804.000	86.60	0.0335776
824.100	86.26	0.0334695
844.200	85.93	0.0335033
864.300	85.59	0.0333686
884.400	85.26	0.0333422
904.500	84.92	0.0333003
924.600	84.59	0.0333152
944.700	84.25	0.0332850
964.800	83.92	0.0332342
984.900	83.58	0.0331693
1005.00	83.25	0.0330823
1025.10	82.91	0.0330806
1045.20	82.58	0.0330571
1065.30	82.24	0.0330036
1085.40	81.91	0.0329599
1105.50	81.57	0.0329572
1125.60	81.24	0.0328776
1145.70	80.90	0.0328398
1165.80	80.57	0.0328507
1185.90	80.23	0.0328069
1206.00	79.90	0.0327052
1226.10	79.56	0.0326264
1246.20	79.23	0.0326460
1266.30	78.89	0.0325884
1286.40	78.56	0.0325391
1306.50	78.22	0.0324711
1326.60	77.89	0.0324961
1346.70	77.55	0.0324483
1366.80	77.22	0.0323683
1386.90	76.88	0.0323066
1407.00	76.55	0.0323484
1427.10	76.21	0.0322830
1447.20	75.88	0.0322001
1467.30	75.54	0.0322255
1487.40	75.21	0.0321703
1507.50	74.87	0.0321567
1527.60	74.54	0.0321167
1547.70	74.20	0.0320242
1567.80	73.87	0.0320231
1587.90	73.53	0.0320097
1608.00	73.20	0.0319357
1628.10	72.86	0.0319208
1648.20	72.53	0.0319015
1668.30	72.19	0.0318155
1688.40	71.86	0.0318237
1708.50	71.52	0.0318045
1728.60	71.19	0.0317517
1748.70	70.85	0.0317462
1768.80	70.52	0.0317544
1788.90	70.18	0.0316272
1809.00	69.85	0.0315964
1829.10	69.52	0.0315657
1849.20	69.18	0.0315284
1869.30	68.85	0.0315228
1889.40	68.51	0.0314715
1909.50	68.17	0.0314925
1929.60	67.84	0.0314311
1949.70	67.51	0.0313168
1969.80	67.17	0.0313513
1989.90	66.83	0.0313383
2010.00	66.50	0.0313563
2030.10	66.16	0.0312922
2050.20	65.83	0.0312764
2070.30	65.49	0.0312676
2090.40	65.16	0.0312474
2110.50	64.82	0.0312011
2130.60	64.49	0.0312187
2150.70	64.16	0.0312444
2170.80	63.82	0.0312177
2190.90	63.48	0.0312135
2211.00	63.15	0.0312360
2231.10	62.81	0.0312945
2251.20	62.48	0.0312451
2271.30	62.15	0.0312569
2291.40	61.81	0.0313230
2311.50	61.48	0.0314723
2331.60	61.14	0.0319861
2351.70	60.81	0.0356733
2371.80	60.47	0.0370334
2391.90	60.14	0.0367993
2412.00	59.80	0.0366771
2432.10	59.47	0.0367596
2452.20	59.15	0.0679403
2472.30	58.80	0.0467169
2492.40	58.47	0.0427692
2512.50	58.13	0.0406691
2532.60	57.79	0.0398680
2552.70	57.46	0.0397476
2572.80	57.12	0.0381395
2592.90	56.79	0.0369745
2613.00	56.45	0.0361482
2633.10	56.12	0.0355721
2653.20	55.78	0.0351069
2673.30	55.45	0.0347725
2693.40	55.11	0.0343535
2713.50	54.78	0.0340193
2733.60	54.44	0.0336859
2753.70	54.11	0.0334703
2773.80	53.77	0.0331822
2793.90	53.44	0.0329478
2814.00	53.10	0.0327462
2834.10	52.77	0.0325953
2854.20	52.43	0.0323800
2874.30	52.10	0.0322011
2894.40	51.76	0.0320252
2914.50	51.43	0.0318324
2934.60	51.09	0.0316817
2954.70	50.76	0.0315619
2974.80	50.42	0.0313467
2994.90	50.09	0.0313356
3015.00	49.75	0.0312088
3035.10	49.42	0.0309704
3055.20	49.08	0.0309384
3075.30	48.75	0.0308353
3095.40	48.41	0.0306734
3115.50	48.08	0.0304852
3135.60	47.74	0.0303465
3155.70	47.41	0.0303550
3175.80	47.07	0.0302743
3195.90	46.74	0.0300326
3216.00	46.40	0.0298930
3236.10	46.07	0.0298312
3256.20	45.73	0.0298334
3276.30	45.40	0.0297189
3296.40	45.06	0.0295540
3316.50	44.73	0.0294871
3336.60	44.39	0.0294332
3356.70	44.06	0.0293478
3376.80	43.72	0.0292321
3396.90	43.39	0.0291435
3417.00	43.05	0.0290602
3437.10	42.72	0.0289748
3457.20	42.38	0.0289000
3477.30	42.05	0.0288406
3497.40	41.71	0.0287494
3517.50	41.38	0.0286442
3537.60	41.04	0.0285138
3557.70	40.71	0.0284235
3577.80	40.37	0.0283891
3597.90	40.04	0.0283007
3618.00	39.70	0.0281811
3638.10	39.37	0.0280943
3658.20	39.03	0.0279999
3678.30	38.70	0.0279513
3698.40	38.36	0.0279043
3718.50	38.03	0.0277783
3738.60	37.69	0.0277058
3758.70	37.35	0.0276684
3778.80	37.02	0.0275783
3798.90	36.68	0.0275358
3819.00	36.35	0.0274568
3839.10	36.02	0.0274216
3859.20	35.68	0.0273837
3879.30	35.35	0.0272774
3899.40	35.01	0.0271963
3919.50	34.68	0.0271634
3939.60	34.34	0.0270773
3959.70	34.01	0.0270126
3979.80	33.67	0.0269279
3999.90	33.34	0.0268872
4020.00	33.00	0.0268420
4040.10	32.67	0.0267813
4060.20	32.33	0.0266928
4080.30	32.00	0.0266239
4100.40	31.66	0.0264834
4120.50	31.33	0.0263726
4140.60	30.99	0.0263126
4160.70	30.66	0.0262141
4180.80	30.32	0.0261527
4200.90	29.99	0.0261238
4221.00	29.65	0.0260968
4241.10	29.32	0.0260784
4261.20	28.98	0.0260269
4281.30	28.65	0.0259022
4301.40	28.31	0.0257680
4321.50	27.98	0.0257149
4341.60	27.64	0.0256427
4361.70	27.31	0.0255946
4381.80	26.97	0.0255616
4401.90	26.64	0.0255232
4422.00	26.30	0.0254568
4442.10	25.97	0.0253948
4462.20	25.63	0.0253677
4482.30	25.30	0.0252307
4502.40	24.96	0.0252385
4522.50	24.63	0.0251686
4542.60	24.29	0.0251146
4562.70	23.96	0.0250690
4582.80	23.62	0.0250062
4602.90	23.29	0.0249471
4623.00	22.95	0.0248821
4643.10	22.62	0.0248266
4663.20	22.28	0.0251369
4683.30	21.97	0.0600100
4703.40	21.77	0.330409
4723.50	21.45	0.363135
4743.60	21.15	0.407406
4763.70	20.68	0.200616
4783.80	20.28	0.0405796
4803.90	19.94	0.0307102
4824.00	19.60	0.0276606
4844.10	19.27	0.0263193
4864.20	18.93	0.0256437
4884.30	18.60	0.0252454
4904.40	18.26	0.0248990
4924.50	17.93	0.0246485
4944.60	17.59	0.0244136
4964.70	17.26	0.0241858
4984.80	16.92	0.0240044
5004.90	16.59	0.0237893
5025.00	16.25	0.0236411
5045.10	15.92	0.0234125
5065.20	15.58	0.0232157
5085.30	15.24	0.0230319
5105.40	14.91	0.0227629
5125.50	14.57	0.0225780
5145.60	14.24	0.0223567
5165.70	13.90	0.0221430
5185.80	13.57	0.0219680
5205.90	13.23	0.0217818
5226.00	12.90	0.0215983
5246.10	12.56	0.0215149
5266.20	12.23	0.0213502
5286.30	11.89	0.0212710
5306.40	11.56	0.0210623
5326.50	11.22	0.0209828
5346.60	10.89	0.0208650
5366.70	10.55	0.0206671
5386.80	10.22	0.0204933
5406.90	9.88	0.0204240
5427.00	9.55	0.0202703
5447.10	9.21	0.0202025
5467.20	8.88	0.0201044
5487.30	8.54	0.0200119
5507.40	8.21	0.0199056
5527.50	7.87	0.0198021
5547.60	7.54	0.0197371
5567.70	7.20	0.0196272
5587.80	6.87	0.0195374
5607.90	6.53	0.0194846
5628.00	6.20	0.0193629
5648.10	5.86	0.0192819
5668.20	5.53	0.0192312
5688.30	5.19	0.0192018
5708.40	4.86	0.0190975
5728.50	4.52	0.0189866
5748.60	4.19	0.0189008
5768.70	3.86	0.0188600
5788.80	3.52	0.0187863
5808.90	3.18	0.0187971
5829.00	2.85	0.0187916
5849.10	2.51	0.0187329
5869.20	2.18	0.0186262
5889.30	1.84	0.0184967
5909.40	1.51	0.0185235
5929.50	1.17	0.0185751
5949.60	0.84	0.0185359
5969.70	0.50	0.0184698
5989.80	0.17	0.0183267
6000.00	0.00	0.0182903